WE1 Volts(mV)    WE1 Idir (uA) 
-600.204000 	 -4.752963 
-599.980700 	 -4.736876 
-599.489300 	 -4.714627 
-598.766100 	 -4.687657 
-597.784300 	 -4.654445 
-596.782300 	 -4.631286 
-595.785200 	 -4.607591 
-594.766000 	 -4.583488 
-593.760000 	 -4.559320 
-592.734600 	 -4.536701 
-591.730900 	 -4.516104 
-590.738000 	 -4.493629 
-589.726800 	 -4.470987 
-588.742400 	 -4.450172 
-587.756000 	 -4.428497 
-586.736900 	 -4.409037 
-585.758100 	 -4.392104 
-584.776600 	 -4.372889 
-583.787100 	 -4.353700 
-582.814200 	 -4.334486 
-581.816300 	 -4.314647 
-580.808300 	 -4.294414 
-579.790500 	 -4.274065 
-578.808200 	 -4.253988 
-577.807900 	 -4.232389 
-576.802100 	 -4.212440 
-575.819500 	 -4.194844 
-574.811500 	 -4.176915 
-573.793800 	 -4.159480 
-572.793800 	 -4.142355 
-571.793700 	 -4.123762 
-570.781900 	 -4.104839 
-569.815100 	 -4.086204 
-568.826400 	 -4.066520 
-567.813000 	 -4.046041 
-566.804700 	 -4.025270 
-565.773400 	 -4.006104 
-564.757800 	 -3.986336 
-563.757000 	 -3.968624 
-562.768900 	 -3.951272 
-561.780900 	 -3.931918 
-560.794200 	 -3.913057 
-559.807900 	 -3.893723 
-558.821500 	 -3.874620 
-557.813900 	 -3.855373 
-556.814900 	 -3.836613 
-555.817400 	 -3.816407 
-554.784700 	 -3.798836 
-553.788500 	 -3.778682 
-552.804800 	 -3.761668 
-551.799000 	 -3.743990 
-550.833200 	 -3.723086 
-549.832500 	 -3.706380 
-548.828400 	 -3.687143 
-547.828200 	 -3.668670 
-546.829000 	 -3.649815 
-545.841700 	 -3.631723 
-544.835900 	 -3.611056 
-543.835400 	 -3.590088 
-542.817600 	 -3.570155 
-541.794900 	 -3.549547 
-540.780500 	 -3.531260 
-539.780700 	 -3.513053 
-538.776300 	 -3.495116 
-537.801100 	 -3.478181 
-536.804800 	 -3.459507 
-535.803000 	 -3.442590 
-534.816300 	 -3.425190 
-533.808700 	 -3.406232 
-532.798400 	 -3.388831 
-531.809600 	 -3.370708 
-530.819600 	 -3.352837 
-529.822900 	 -3.333806 
-528.825100 	 -3.312892 
-527.821000 	 -3.291624 
-526.812300 	 -3.271152 
-525.819600 	 -3.251814 
-524.828100 	 -3.235834 
-523.818400 	 -3.219064 
-522.826900 	 -3.201034 
-521.820300 	 -3.184315 
-520.836400 	 -3.165407 
-519.836100 	 -3.146805 
-518.828100 	 -3.128692 
-517.825700 	 -3.107303 
-516.800500 	 -3.085921 
-515.792100 	 -3.064462 
-514.764800 	 -3.045017 
-513.762800 	 -3.027894 
-512.743500 	 -3.012700 
-511.770600 	 -2.997828 
-510.796700 	 -2.981369 
-509.790100 	 -2.962837 
-508.827900 	 -2.944324 
-507.810300 	 -2.924817 
-506.799300 	 -2.904367 
-505.799600 	 -2.886110 
-504.790100 	 -2.866172 
-503.773100 	 -2.846282 
-502.771700 	 -2.827121 
-501.774000 	 -2.808244 
-500.775100 	 -2.789703 
-499.811600 	 -2.772511 
-498.826300 	 -2.755724 
-497.849500 	 -2.737633 
-496.844300 	 -2.718297 
-495.824200 	 -2.698831 
-494.827000 	 -2.679220 
-493.809300 	 -2.657797 
-492.826500 	 -2.638695 
-491.823400 	 -2.619129 
-490.803300 	 -2.597963 
-489.798500 	 -2.578906 
-488.792500 	 -2.558215 
-487.796000 	 -2.537412 
-486.815600 	 -2.516776 
-485.817700 	 -2.495353 
-484.805500 	 -2.473682 
-483.808300 	 -2.451785 
-482.819200 	 -2.432671 
-481.842300 	 -2.414183 
-480.872800 	 -2.395158 
-479.888200 	 -2.376441 
-478.879700 	 -2.353886 
-477.861700 	 -2.326890 
-476.841900 	 -2.303087 
-475.825500 	 -2.277992 
-474.830600 	 -2.255321 
-473.833600 	 -2.235778 
-472.840800 	 -2.213222 
-471.851500 	 -2.188929 
-470.831700 	 -2.165776 
-469.824500 	 -2.139968 
-468.831500 	 -2.113421 
-467.841900 	 -2.086633 
-466.852100 	 -2.055670 
-465.844700 	 -2.023175 
-464.806900 	 -1.990071 
-463.762000 	 -1.959138 
-462.763600 	 -1.928059 
-461.794300 	 -1.898144 
-460.821400 	 -1.872332 
-459.849700 	 -1.841771 
-458.857400 	 -1.809387 
-457.839500 	 -1.779302 
-456.843800 	 -1.745272 
-455.859400 	 -1.710375 
-454.830000 	 -1.677464 
-453.828600 	 -1.640362 
-452.819000 	 -1.601632 
-451.786900 	 -1.563080 
-450.801400 	 -1.524565 
-449.788800 	 -1.486061 
-448.794600 	 -1.445730 
-447.825700 	 -1.407648 
-446.826500 	 -1.364802 
-445.818400 	 -1.314552 
-444.827100 	 -1.267953 
-443.806800 	 -1.216758 
-442.817300 	 -1.164870 
-441.839300 	 -1.118608 
-440.827200 	 -1.069184 
-439.828800 	 -1.016685 
-438.809500 	 -0.965919 
-437.804000 	 -0.914048 
-436.819400 	 -0.861745 
-435.819500 	 -0.807910 
-434.844000 	 -0.752516 
-433.858900 	 -0.694039 
-432.830000 	 -0.630576 
-431.829500 	 -0.571303 
-430.834400 	 -0.513221 
-429.823500 	 -0.448735 
-428.839900 	 -0.386789 
-427.850800 	 -0.317296 
-426.835000 	 -0.238651 
-425.832000 	 -0.162290 
-424.819600 	 -0.084418 
-423.816400 	 -0.008462 
-422.819500 	 0.063792 
-421.839000 	 0.139388 
-420.834500 	 0.213523 
-419.830900 	 0.293508 
-418.823600 	 0.374899 
-417.800600 	 0.458167 
-416.804000 	 0.551332 
-415.783300 	 0.647465 
-414.761600 	 0.747759 
-413.728000 	 0.853920 
-412.740600 	 0.945167 
-411.752000 	 1.032627 
-410.758300 	 1.124803 
-409.807800 	 1.209970 
-408.807700 	 1.311520 
-407.813700 	 1.419400 
-406.843800 	 1.523741 
-405.814000 	 1.638775 
-404.818400 	 1.751015 
-403.827400 	 1.862349 
-402.825900 	 1.978336 
-401.856300 	 2.091747 
-400.855300 	 2.212406 
-399.865500 	 2.329453 
-398.864500 	 2.447965 
-397.852800 	 2.572619 
-396.871500 	 2.690139 
-395.863300 	 2.819650 
-394.846900 	 2.956493 
-393.861200 	 3.085552 
-392.831300 	 3.223623 
-391.839900 	 3.362369 
-390.860000 	 3.492676 
-389.853600 	 3.635589 
-388.858900 	 3.780079 
-387.851200 	 3.924028 
-386.855200 	 4.070907 
-385.860700 	 4.217258 
-384.863700 	 4.365113 
-383.860000 	 4.509096 
-382.859500 	 4.659186 
-381.850000 	 4.814517 
-380.869100 	 4.954774 
-379.886400 	 5.101583 
-378.866200 	 5.254226 
-377.883800 	 5.397886 
-376.884200 	 5.563808 
-375.870400 	 5.739680 
-374.879800 	 5.908743 
-373.878400 	 6.081392 
-372.864100 	 6.246294 
-371.849300 	 6.401344 
-370.851500 	 6.552614 
-369.847200 	 6.707837 
-368.851700 	 6.874604 
-367.896600 	 7.037663 
-366.920000 	 7.209260 
-365.907800 	 7.395370 
-364.907300 	 7.567546 
-363.872600 	 7.748627 
-362.830700 	 7.936083 
-361.820200 	 8.100964 
-360.819500 	 8.263037 
-359.827300 	 8.421467 
-358.852800 	 8.570747 
-357.896000 	 8.730834 
-356.893400 	 8.901510 
-355.893400 	 9.083797 
-354.893200 	 9.263206 
-353.880600 	 9.437548 
-352.885400 	 9.614210 
-351.894000 	 9.774887 
-350.895100 	 9.935050 
-349.879000 	 10.109220 
-348.887800 	 10.269480 
-347.898100 	 10.430670 
-346.906300 	 10.602290 
-345.923700 	 10.761830 
-344.921100 	 10.932660 
-343.904300 	 11.109790 
-342.891800 	 11.278140 
-341.877800 	 11.443190 
-340.876900 	 11.594120 
-339.870700 	 11.743710 
-338.873400 	 11.894650 
-337.887500 	 12.051050 
-336.879200 	 12.225280 
-335.872000 	 12.392930 
-334.867800 	 12.553370 
-333.851600 	 12.713810 
-332.866700 	 12.854030 
-331.883800 	 12.991560 
-330.897100 	 13.131590 
-329.906900 	 13.257510 
-328.903800 	 13.392850 
-327.903600 	 13.532610 
-326.901500 	 13.672930 
-325.917100 	 13.828540 
-324.924400 	 13.980010 
-323.915000 	 14.132280 
-322.907900 	 14.274630 
-321.895600 	 14.397450 
-320.885300 	 14.513210 
-319.904800 	 14.618600 
-318.910800 	 14.730950 
-317.894800 	 14.856540 
-316.900900 	 14.982590 
-315.878900 	 15.115520 
-314.875500 	 15.248580 
-313.872400 	 15.364850 
-312.849200 	 15.486540 
-311.837000 	 15.600790 
-310.816900 	 15.701530 
-309.821000 	 15.801700 
-308.820800 	 15.888580 
-307.839100 	 15.970190 
-306.851500 	 16.056680 
-305.859800 	 16.150420 
-304.852700 	 16.252330 
-303.861900 	 16.342970 
-302.865200 	 16.426240 
-301.861800 	 16.503880 
-300.888900 	 16.556560 
-299.889600 	 16.618870 
-298.881200 	 16.689430 
-297.888800 	 16.746550 
-296.873700 	 16.820090 
-295.867700 	 16.893180 
-294.877500 	 16.949730 
-293.878500 	 17.012360 
-292.894000 	 17.068110 
-291.895000 	 17.111890 
-290.899400 	 17.145420 
-289.895800 	 17.172470 
-288.890000 	 17.201020 
-287.891200 	 17.228050 
-286.870200 	 17.269790 
-285.864100 	 17.326990 
-284.854700 	 17.361560 
-283.842000 	 17.388740 
-282.852600 	 17.408360 
-281.873900 	 17.391500 
-280.887800 	 17.381220 
-279.905600 	 17.375770 
-278.929700 	 17.361490 
-277.914700 	 17.358690 
-276.901600 	 17.358440 
-275.902800 	 17.357180 
-274.888300 	 17.353100 
-273.881400 	 17.345100 
-272.874800 	 17.341120 
-271.870000 	 17.311610 
-270.864700 	 17.269370 
-269.876800 	 17.231360 
-268.910300 	 17.169040 
-267.912600 	 17.117300 
-266.920700 	 17.087760 
-265.928400 	 17.045460 
-264.908300 	 17.010540 
-263.912400 	 16.972640 
-262.908700 	 16.914200 
-261.906200 	 16.851530 
-260.907300 	 16.780590 
-259.901900 	 16.705520 
-258.902600 	 16.616680 
-257.912100 	 16.518750 
-256.918600 	 16.425990 
-255.929000 	 16.327560 
-254.939800 	 16.233510 
-253.928100 	 16.155520 
-252.914300 	 16.051780 
-251.915000 	 15.940260 
-250.897200 	 15.829340 
-249.905100 	 15.696670 
-248.918000 	 15.580890 
-247.904000 	 15.470290 
-246.917500 	 15.359020 
-245.897400 	 15.244030 
-244.913700 	 15.117540 
-243.916000 	 14.986500 
-242.898000 	 14.844740 
-241.936000 	 14.702610 
-240.934000 	 14.566340 
-239.939800 	 14.421320 
-238.967400 	 14.274860 
-237.934000 	 14.139190 
-236.903800 	 13.995380 
-235.894900 	 13.858280 
-234.863800 	 13.727430 
-233.865000 	 13.572200 
-232.879500 	 13.413260 
-231.888000 	 13.242930 
-230.911200 	 13.049170 
-229.910000 	 12.864550 
-228.910400 	 12.680890 
-227.906500 	 12.501320 
-226.884500 	 12.332030 
-225.889600 	 12.164980 
-224.885000 	 11.998850 
-223.876600 	 11.825920 
-222.897600 	 11.656030 
-221.882000 	 11.488490 
-220.893300 	 11.302200 
-219.906900 	 11.118620 
-218.909900 	 10.936360 
-217.926000 	 10.737930 
-216.918900 	 10.562870 
-215.911800 	 10.398660 
-214.890400 	 10.231480 
-213.873400 	 10.070590 
-212.853900 	 9.902268 
-211.846700 	 9.724610 
-210.844000 	 9.543468 
-209.833400 	 9.366549 
-208.837400 	 9.198587 
-207.816100 	 9.023800 
-206.826400 	 8.854059 
-205.840100 	 8.694900 
-204.845900 	 8.523130 
-203.860000 	 8.361740 
-202.863400 	 8.207361 
-201.859600 	 8.035374 
-200.876800 	 7.870639 
-199.892300 	 7.708438 
-198.901900 	 7.543259 
-197.917200 	 7.390059 
-196.913500 	 7.244945 
-195.891400 	 7.108917 
-194.869000 	 6.971803 
-193.883100 	 6.831616 
-192.866000 	 6.694046 
-191.884900 	 6.546562 
-190.894100 	 6.402743 
-189.857400 	 6.272110 
-188.863300 	 6.135445 
-187.871400 	 6.007514 
-186.871300 	 5.890132 
-185.882800 	 5.765596 
-184.884000 	 5.653233 
-183.867100 	 5.542602 
-182.869400 	 5.428536 
-181.876800 	 5.314209 
-180.902700 	 5.194249 
-179.919400 	 5.075307 
-178.942500 	 4.960210 
-177.957200 	 4.851547 
-176.929300 	 4.755926 
-175.922000 	 4.660034 
-174.917400 	 4.565108 
-173.916700 	 4.474592 
-172.916000 	 4.376782 
-171.916700 	 4.283310 
-170.888500 	 4.195822 
-169.875200 	 4.105673 
-168.903500 	 4.021837 
-167.915500 	 3.939692 
-166.936300 	 3.859227 
-165.950000 	 3.786047 
-164.932400 	 3.714182 
-163.931800 	 3.644425 
-162.921800 	 3.572281 
-161.894300 	 3.495337 
-160.880800 	 3.421092 
-159.882600 	 3.347290 
-158.888400 	 3.277621 
-157.885900 	 3.216547 
-156.886800 	 3.153043 
-155.884200 	 3.093870 
-154.856200 	 3.036074 
-153.891700 	 2.972559 
-152.899700 	 2.916254 
-151.894200 	 2.858758 
-150.910900 	 2.801992 
-149.907000 	 2.749997 
-148.911500 	 2.696828 
-147.908300 	 2.646011 
-146.915000 	 2.599367 
-145.912500 	 2.553210 
-144.902500 	 2.511776 
-143.891500 	 2.468217 
-142.891800 	 2.422001 
-141.873600 	 2.377554 
-140.892200 	 2.327439 
-139.912800 	 2.284992 
-138.920800 	 2.246777 
-137.937800 	 2.207121 
-136.932800 	 2.175242 
-135.933900 	 2.139931 
-134.914100 	 2.103639 
-133.892800 	 2.070773 
-132.876300 	 2.037776 
-131.867700 	 2.004636 
-130.882200 	 1.970874 
-129.904600 	 1.937148 
-128.939400 	 1.904408 
-127.957500 	 1.873890 
-126.962900 	 1.849287 
-125.954300 	 1.826954 
-124.924600 	 1.799971 
-123.906100 	 1.775457 
-122.905300 	 1.749801 
-121.909100 	 1.718879 
-120.914700 	 1.695436 
-119.917800 	 1.672240 
-118.926900 	 1.647986 
-117.934900 	 1.628087 
-116.951400 	 1.608017 
-115.932800 	 1.588025 
-114.908000 	 1.569007 
-113.893900 	 1.550205 
-112.872200 	 1.532401 
-111.883300 	 1.511273 
-110.890600 	 1.491247 
-109.905100 	 1.474289 
-108.908400 	 1.453477 
-107.903500 	 1.438075 
-106.881500 	 1.425962 
-105.854900 	 1.409373 
-104.866100 	 1.393097 
-103.854900 	 1.378671 
-102.885400 	 1.361778 
-101.901300 	 1.345351 
-100.885300 	 1.334417 
-99.915580 	 1.321091 
-98.922590 	 1.305651 
-97.924760 	 1.292973 
-96.936200 	 1.279815 
-95.926820 	 1.264612 
-94.912890 	 1.251933 
-93.898960 	 1.240841 
-92.903840 	 1.227712 
-91.926960 	 1.217948 
-90.938250 	 1.208232 
-89.965580 	 1.196065 
-88.954860 	 1.187166 
-87.922120 	 1.179553 
-86.936810 	 1.171295 
-85.917080 	 1.163338 
-84.933150 	 1.153507 
-83.959580 	 1.142035 
-82.934050 	 1.131567 
-81.933940 	 1.122788 
-80.925770 	 1.114197 
-79.920190 	 1.104585 
-78.924680 	 1.095173 
-77.935410 	 1.089291 
-76.932520 	 1.081636 
-75.928120 	 1.078692 
-74.914260 	 1.076201 
-73.909360 	 1.067658 
-72.928220 	 1.061810 
-71.905280 	 1.052088 
-70.940530 	 1.040416 
-69.934840 	 1.034783 
-68.919100 	 1.028404 
-67.921380 	 1.024386 
-66.913760 	 1.021217 
-65.917850 	 1.017786 
-64.906200 	 1.014802 
-63.935840 	 1.010092 
-62.914210 	 1.007533 
-61.907820 	 1.003841 
-60.910910 	 0.995127 
-59.886090 	 0.989566 
-58.885480 	 0.983121 
-57.882380 	 0.974559 
-56.877910 	 0.972961 
-55.881180 	 0.971240 
-54.869470 	 0.968514 
-53.864370 	 0.966418 
-52.864150 	 0.962732 
-51.872340 	 0.957144 
-50.885880 	 0.955112 
-49.899550 	 0.955291 
-48.889960 	 0.957032 
-47.892480 	 0.956467 
-46.911700 	 0.954619 
-45.887240 	 0.954719 
-44.904800 	 0.949556 
-43.912710 	 0.950118 
-42.895370 	 0.951161 
-41.911110 	 0.946783 
-40.908530 	 0.945829 
-39.897550 	 0.943866 
-38.891080 	 0.942690 
-37.895340 	 0.944813 
-36.890410 	 0.948959 
-35.868960 	 0.949446 
-34.872440 	 0.948419 
-33.860370 	 0.946744 
-32.878300 	 0.945756 
-31.889690 	 0.944197 
-30.883140 	 0.943971 
-29.898050 	 0.947854 
-28.880610 	 0.945396 
-27.904690 	 0.947674 
-26.904620 	 0.951985 
-25.910150 	 0.950775 
-24.920770 	 0.955825 
-23.926510 	 0.958956 
-22.941370 	 0.958222 
-21.929900 	 0.958019 
-20.928410 	 0.957083 
-19.907280 	 0.957179 
-18.912690 	 0.959141 
-17.945610 	 0.962894 
-16.941980 	 0.969619 
-15.922730 	 0.972664 
-14.889380 	 0.975155 
-13.845580 	 0.979245 
-12.851190 	 0.976619 
-11.868580 	 0.978080 
-10.892010 	 0.981791 
-9.918026 	 0.981312 
-8.901713 	 0.985058 
-7.901995 	 0.987986 
-6.886078 	 0.990480 
-5.869601 	 0.995753 
-4.866778 	 1.000460 
-3.875050 	 0.998516 
-2.896464 	 0.998195 
-1.920238 	 0.996536 
-0.939489 	 0.998063 
0.042778 	 1.004659 
1.027919 	 1.008738 
2.024204 	 1.015352 
2.989714 	 1.016141 
3.983704 	 1.018630 
4.972477 	 1.020828 
5.971123 	 1.020828 
6.981393 	 1.024863 
7.983605 	 1.027450 
8.972626 	 1.029652 
9.951971 	 1.032524 
10.950680 	 1.034585 
11.956180 	 1.036850 
12.963860 	 1.042076 
13.981130 	 1.045584 
14.965870 	 1.049645 
15.958770 	 1.052870 
16.962110 	 1.053491 
17.948970 	 1.058661 
18.963200 	 1.058461 
19.958510 	 1.062444 
20.954400 	 1.065745 
21.954550 	 1.066658 
22.955370 	 1.073753 
23.959530 	 1.077523 
24.955670 	 1.080305 
25.963590 	 1.083536 
26.969770 	 1.084504 
27.972050 	 1.085046 
28.952190 	 1.087942 
29.926560 	 1.090172 
30.916720 	 1.093904 
31.892140 	 1.098440 
32.899090 	 1.105156 
33.936950 	 1.114017 
34.937110 	 1.117981 
35.949830 	 1.123544 
36.963000 	 1.126357 
37.939650 	 1.124460 
38.908930 	 1.129087 
39.894580 	 1.133302 
40.887780 	 1.136623 
41.880230 	 1.142784 
42.911040 	 1.147640 
43.936290 	 1.152731 
44.952130 	 1.158567 
45.971770 	 1.165086 
46.973780 	 1.170178 
47.977560 	 1.172437 
48.948850 	 1.175851 
49.937150 	 1.180957 
50.918470 	 1.184150 
51.875360 	 1.191265 
52.880070 	 1.200720 
53.868050 	 1.203681 
54.869720 	 1.209413 
55.895360 	 1.213848 
56.902440 	 1.217599 
57.901730 	 1.226493 
58.890020 	 1.235755 
59.879260 	 1.244303 
60.880070 	 1.250831 
61.891720 	 1.257160 
62.899520 	 1.263359 
63.913020 	 1.271629 
64.887980 	 1.276141 
65.888830 	 1.284747 
66.890400 	 1.291792 
67.859630 	 1.299574 
68.884250 	 1.310161 
69.867540 	 1.315876 
70.861660 	 1.325326 
71.891490 	 1.334050 
72.887850 	 1.345314 
73.898320 	 1.356544 
74.908020 	 1.365540 
75.915790 	 1.373538 
76.930030 	 1.380224 
77.921230 	 1.386218 
78.926280 	 1.395793 
79.899640 	 1.403870 
80.868060 	 1.412981 
81.877880 	 1.425923 
82.857770 	 1.436756 
83.879430 	 1.450107 
84.918270 	 1.463568 
85.921100 	 1.473857 
86.931110 	 1.483957 
87.930660 	 1.492719 
88.904280 	 1.500975 
89.921970 	 1.511973 
90.926900 	 1.522371 
91.917600 	 1.534140 
92.916400 	 1.547675 
93.907580 	 1.559392 
94.906040 	 1.572598 
95.903680 	 1.584400 
96.910310 	 1.595473 
97.912350 	 1.608274 
98.470780 	 1.534916 
98.500920 	 1.433465 
98.040830 	 1.306975 
97.056250 	 1.157960 
96.050960 	 1.077314 
95.072330 	 1.008373 
94.072280 	 0.947686 
93.078220 	 0.894404 
92.050240 	 0.844666 
91.033300 	 0.798462 
90.024470 	 0.757678 
89.040570 	 0.719733 
88.061860 	 0.685232 
87.054070 	 0.651940 
86.046270 	 0.622780 
85.025180 	 0.595670 
84.020870 	 0.567354 
83.038780 	 0.543375 
82.047620 	 0.518086 
81.058050 	 0.491200 
80.056530 	 0.468959 
79.053250 	 0.447631 
78.062620 	 0.424995 
77.056150 	 0.406369 
76.060230 	 0.387107 
75.086290 	 0.367071 
74.083360 	 0.347182 
73.095280 	 0.326519 
72.086000 	 0.308240 
71.054780 	 0.287525 
70.039990 	 0.270926 
69.029050 	 0.257015 
68.035540 	 0.238714 
67.034770 	 0.225867 
66.063160 	 0.214698 
65.072380 	 0.200976 
64.099470 	 0.191048 
63.127530 	 0.180682 
62.107000 	 0.165512 
61.105600 	 0.151460 
60.063370 	 0.137632 
59.051100 	 0.124498 
58.036140 	 0.112341 
57.024340 	 0.100845 
56.047400 	 0.091802 
55.035030 	 0.080197 
54.069590 	 0.070290 
53.094750 	 0.061683 
52.092330 	 0.049138 
51.111430 	 0.038013 
50.108150 	 0.028721 
49.080770 	 0.016309 
48.080360 	 0.006554 
47.078720 	 -0.001284 
46.093120 	 -0.009015 
45.120180 	 -0.014708 
44.121330 	 -0.022241 
43.114380 	 -0.030038 
42.096050 	 -0.040315 
41.073780 	 -0.051588 
40.071990 	 -0.058847 
39.061910 	 -0.068023 
38.047070 	 -0.074914 
37.056890 	 -0.079689 
36.054040 	 -0.087463 
35.063550 	 -0.093948 
34.090160 	 -0.100334 
33.056100 	 -0.107614 
32.046080 	 -0.113910 
31.036130 	 -0.121014 
30.026190 	 -0.129286 
29.060610 	 -0.135323 
28.074860 	 -0.142386 
27.091330 	 -0.145972 
26.108900 	 -0.149195 
25.106430 	 -0.154598 
24.128710 	 -0.158981 
23.159320 	 -0.168150 
22.131970 	 -0.177115 
21.165660 	 -0.185539 
20.160430 	 -0.194718 
19.130220 	 -0.200137 
18.149170 	 -0.204395 
17.106080 	 -0.210628 
16.101390 	 -0.213199 
15.103090 	 -0.217589 
14.114270 	 -0.223175 
13.156780 	 -0.225447 
12.152920 	 -0.231683 
11.152720 	 -0.239305 
10.138610 	 -0.246406 
9.110801 	 -0.252941 
8.093532 	 -0.257440 
7.082420 	 -0.260276 
6.092012 	 -0.263317 
5.101902 	 -0.268406 
4.122573 	 -0.277746 
3.155065 	 -0.285523 
2.160662 	 -0.293280 
1.155462 	 -0.303331 
0.155313 	 -0.308137 
-0.842293 	 -0.313560 
-1.820598 	 -0.316598 
-2.767121 	 -0.318647 
-3.715625 	 -0.323727 
-4.707172 	 -0.329881 
-5.735339 	 -0.339940 
-6.774518 	 -0.346281 
-7.800109 	 -0.351555 
-8.819674 	 -0.357835 
-9.803923 	 -0.362861 
-10.785400 	 -0.367537 
-11.793160 	 -0.374155 
-12.764360 	 -0.377931 
-13.737120 	 -0.380187 
-14.747900 	 -0.390419 
-15.747470 	 -0.398267 
-16.760810 	 -0.407351 
-17.790660 	 -0.415940 
-18.811730 	 -0.420625 
-19.813710 	 -0.426071 
-20.822960 	 -0.431484 
-21.806400 	 -0.438391 
-22.793190 	 -0.443474 
-23.778530 	 -0.445822 
-24.766670 	 -0.450612 
-25.744870 	 -0.456534 
-26.716120 	 -0.461220 
-27.690760 	 -0.473321 
-28.681610 	 -0.482368 
-29.722130 	 -0.489032 
-30.737090 	 -0.498864 
-31.751750 	 -0.503405 
-32.755990 	 -0.509395 
-33.750350 	 -0.517558 
-34.744060 	 -0.525372 
-35.756650 	 -0.534631 
-36.760370 	 -0.542646 
-37.757530 	 -0.551065 
-38.762310 	 -0.560319 
-39.761050 	 -0.567877 
-40.770770 	 -0.578356 
-41.760420 	 -0.588877 
-42.756600 	 -0.595328 
-43.765670 	 -0.604234 
-44.747460 	 -0.610372 
-45.759290 	 -0.616000 
-46.771000 	 -0.626344 
-47.760020 	 -0.635908 
-48.786550 	 -0.647732 
-49.778860 	 -0.658876 
-50.751350 	 -0.667626 
-51.751720 	 -0.677539 
-52.712540 	 -0.687064 
-53.712880 	 -0.698122 
-54.717850 	 -0.711153 
-55.726880 	 -0.722089 
-56.759770 	 -0.733587 
-57.787300 	 -0.745483 
-58.802070 	 -0.755700 
-59.803010 	 -0.771184 
-60.802800 	 -0.783837 
-61.784290 	 -0.795998 
-62.799630 	 -0.808939 
-63.792220 	 -0.816136 
-64.785680 	 -0.825156 
-65.757390 	 -0.837416 
-66.746230 	 -0.850927 
-67.755960 	 -0.867380 
-68.762380 	 -0.885675 
-69.781190 	 -0.900922 
-70.780140 	 -0.915502 
-71.793850 	 -0.928887 
-72.797070 	 -0.943759 
-73.795550 	 -0.957814 
-74.781450 	 -0.970084 
-75.764510 	 -0.987170 
-76.742750 	 -1.000936 
-77.735110 	 -1.016989 
-78.742610 	 -1.039960 
-79.761470 	 -1.059961 
-80.784840 	 -1.080590 
-81.809010 	 -1.101780 
-82.810180 	 -1.116909 
-83.802550 	 -1.131626 
-84.794780 	 -1.147653 
-85.778070 	 -1.165592 
-86.777730 	 -1.186369 
-87.751430 	 -1.207764 
-88.750810 	 -1.234577 
-89.751120 	 -1.258685 
-90.755390 	 -1.281577 
-91.785020 	 -1.310340 
-92.781270 	 -1.332226 
-93.771830 	 -1.352089 
-94.759090 	 -1.372255 
-95.741080 	 -1.388928 
-96.748810 	 -1.407832 
-97.759250 	 -1.435096 
-98.787020 	 -1.465551 
-99.785810 	 -1.496465 
-100.770000 	 -1.525393 
-101.767300 	 -1.550109 
-102.744700 	 -1.571074 
-103.712800 	 -1.591194 
-104.701400 	 -1.619532 
-105.709700 	 -1.650600 
-106.686700 	 -1.682317 
-107.722700 	 -1.717993 
-108.739800 	 -1.749871 
-109.744300 	 -1.779419 
-110.767100 	 -1.813228 
-111.765200 	 -1.844673 
-112.770400 	 -1.874741 
-113.766600 	 -1.904320 
-114.773000 	 -1.931767 
-115.773200 	 -1.960521 
-116.768100 	 -1.991304 
-117.764800 	 -2.025736 
-118.767700 	 -2.064085 
-119.782700 	 -2.098184 
-120.798100 	 -2.133935 
-121.819700 	 -2.167744 
-122.807500 	 -2.197160 
-123.785100 	 -2.233528 
-124.771800 	 -2.269393 
-125.741400 	 -2.306859 
-126.747600 	 -2.347326 
-127.751000 	 -2.385377 
-128.725200 	 -2.423781 
-129.745800 	 -2.464764 
-130.746600 	 -2.505307 
-131.757500 	 -2.548798 
-132.786900 	 -2.590398 
-133.779300 	 -2.628418 
-134.780000 	 -2.668187 
-135.761600 	 -2.704290 
-136.762600 	 -2.746327 
-137.750400 	 -2.789639 
-138.739100 	 -2.832813 
-139.764600 	 -2.880678 
-140.751400 	 -2.923934 
-141.760200 	 -2.967493 
-142.766600 	 -3.016522 
-143.748500 	 -3.061953 
-144.766300 	 -3.111440 
-145.756100 	 -3.163301 
-146.761800 	 -3.208954 
-147.767900 	 -3.259640 
-148.755000 	 -3.310577 
-149.761400 	 -3.364174 
-150.768000 	 -3.419064 
-151.761900 	 -3.470798 
-152.765300 	 -3.523391 
-153.786600 	 -3.570373 
-154.763600 	 -3.619222 
-155.762800 	 -3.674845 
-156.753500 	 -3.731215 
-157.721800 	 -3.791200 
-158.747700 	 -3.855181 
-159.742800 	 -3.914488 
-160.748400 	 -3.971252 
-161.751500 	 -4.032011 
-162.734300 	 -4.089977 
-163.746000 	 -4.151238 
-164.750200 	 -4.210335 
-165.770400 	 -4.274933 
-166.778300 	 -4.335327 
-167.777800 	 -4.395106 
-168.793800 	 -4.465005 
-169.798200 	 -4.530116 
-170.796900 	 -4.598434 
-171.817400 	 -4.670391 
-172.811900 	 -4.737426 
-173.791900 	 -4.802035 
-174.798800 	 -4.872635 
-175.791500 	 -4.942925 
-176.757500 	 -5.008624 
-177.743900 	 -5.077137 
-178.737500 	 -5.145039 
-179.704900 	 -5.214005 
-180.716100 	 -5.289078 
-181.729100 	 -5.371100 
-182.745800 	 -5.453499 
-183.755500 	 -5.530588 
-184.763500 	 -5.612068 
-185.767500 	 -5.689541 
-186.745700 	 -5.760653 
-187.737500 	 -5.845643 
-188.742500 	 -5.935077 
-189.737200 	 -6.022316 
-190.744600 	 -6.118157 
-191.749900 	 -6.205400 
-192.713300 	 -6.284957 
-193.700800 	 -6.367564 
-194.699800 	 -6.449612 
-195.700400 	 -6.538471 
-196.703900 	 -6.629652 
-197.698100 	 -6.725257 
-198.688200 	 -6.822360 
-199.696800 	 -6.918757 
-200.713300 	 -7.021934 
-201.746500 	 -7.125439 
-202.740000 	 -7.221041 
-203.722200 	 -7.320208 
-204.699700 	 -7.408816 
-205.656600 	 -7.492892 
-206.646800 	 -7.594387 
-207.651400 	 -7.696012 
-208.672000 	 -7.812220 
-209.698500 	 -7.941213 
-210.712200 	 -8.058786 
-211.712500 	 -8.175989 
-212.702900 	 -8.287258 
-213.700900 	 -8.394141 
-214.698600 	 -8.508159 
-215.698500 	 -8.618786 
-216.706300 	 -8.728974 
-217.697800 	 -8.838942 
-218.691500 	 -8.943524 
-219.693200 	 -9.070620 
-220.704500 	 -9.201748 
-221.734600 	 -9.331538 
-222.749000 	 -9.468190 
-223.753400 	 -9.583464 
-224.747200 	 -9.691551 
-225.735300 	 -9.805688 
-226.738600 	 -9.917781 
-227.751500 	 -10.051090 
-228.753800 	 -10.178610 
-229.750000 	 -10.311050 
-230.724300 	 -10.441440 
-231.716500 	 -10.551560 
-232.700900 	 -10.685060 
-233.701600 	 -10.814470 
-234.703000 	 -10.935320 
-235.685400 	 -11.072270 
-236.701300 	 -11.201330 
-237.696000 	 -11.324230 
-238.722900 	 -11.470380 
-239.742400 	 -11.620760 
-240.752500 	 -11.764170 
-241.751500 	 -11.911270 
-242.747700 	 -12.044720 
-243.751700 	 -12.161060 
-244.721600 	 -12.280320 
-245.711700 	 -12.406670 
-246.694900 	 -12.541140 
-247.669300 	 -12.675060 
-248.693000 	 -12.823140 
-249.706500 	 -12.972310 
-250.700100 	 -13.105010 
-251.712400 	 -13.253680 
-252.706200 	 -13.393690 
-253.706900 	 -13.520530 
-254.700500 	 -13.655230 
-255.692300 	 -13.777310 
-256.681200 	 -13.894450 
-257.669500 	 -14.026630 
-258.687200 	 -14.169660 
-259.673200 	 -14.328180 
-260.699400 	 -14.489370 
-261.708700 	 -14.643880 
-262.722500 	 -14.792060 
-263.730200 	 -14.924110 
-264.707300 	 -15.049640 
-265.694100 	 -15.176640 
-266.676900 	 -15.294010 
-267.691000 	 -15.420530 
-268.706800 	 -15.552700 
-269.700100 	 -15.684070 
-270.707400 	 -15.832430 
-271.712300 	 -15.976800 
-272.710200 	 -16.122420 
-273.733600 	 -16.265980 
-274.750200 	 -16.385210 
-275.750400 	 -16.501310 
-276.734600 	 -16.616310 
-277.730000 	 -16.732370 
-278.718700 	 -16.863990 
-279.694900 	 -16.998930 
-280.711500 	 -17.134820 
-281.709500 	 -17.263150 
-282.705700 	 -17.374260 
-283.727300 	 -17.494110 
-284.692300 	 -17.601940 
-285.676400 	 -17.710450 
-286.665100 	 -17.836540 
-287.659400 	 -17.944740 
-288.676900 	 -18.058610 
-289.713100 	 -18.187590 
-290.722500 	 -18.308380 
-291.722300 	 -18.433700 
-292.718900 	 -18.556300 
-293.689100 	 -18.660720 
-294.670500 	 -18.752310 
-295.666600 	 -18.833490 
-296.683500 	 -18.926910 
-297.688300 	 -19.023140 
-298.696300 	 -19.122260 
-299.698500 	 -19.245490 
-300.691100 	 -19.353030 
-301.685900 	 -19.447560 
-302.706400 	 -19.554750 
-303.694200 	 -19.639060 
-304.668800 	 -19.710200 
-305.658100 	 -19.788410 
-306.633200 	 -19.853930 
-307.627100 	 -19.925160 
-308.639600 	 -20.013980 
-309.663900 	 -20.113590 
-310.656800 	 -20.219880 
-311.675600 	 -20.311690 
-312.690900 	 -20.403450 
-313.682900 	 -20.476560 
-314.689000 	 -20.527270 
-315.692200 	 -20.592960 
-316.708000 	 -20.652770 
-317.698200 	 -20.702030 
-318.722000 	 -20.771400 
-319.721400 	 -20.826190 
-320.706300 	 -20.870560 
-321.717000 	 -20.927180 
-322.720600 	 -20.975030 
-323.748600 	 -21.024370 
-324.759200 	 -21.065140 
-325.772600 	 -21.101710 
-326.772300 	 -21.133010 
-327.733600 	 -21.146240 
-328.724200 	 -21.177220 
-329.706300 	 -21.197790 
-330.687800 	 -21.210380 
-331.709200 	 -21.236150 
-332.736100 	 -21.244580 
-333.742800 	 -21.244650 
-334.750200 	 -21.251180 
-335.723500 	 -21.245850 
-336.696700 	 -21.243210 
-337.696600 	 -21.249400 
-338.693300 	 -21.247320 
-339.714400 	 -21.251950 
-340.703900 	 -21.253940 
-341.694300 	 -21.253510 
-342.705700 	 -21.252000 
-343.706100 	 -21.231200 
-344.707800 	 -21.200920 
-345.713800 	 -21.157810 
-346.704900 	 -21.104330 
-347.702900 	 -21.067910 
-348.707200 	 -21.034200 
-349.704800 	 -21.005360 
-350.692900 	 -20.988440 
-351.687900 	 -20.952420 
-352.699900 	 -20.903610 
-353.680800 	 -20.851440 
-354.690700 	 -20.779160 
-355.684000 	 -20.705400 
-356.645000 	 -20.630610 
-357.658900 	 -20.549370 
-358.664300 	 -20.471430 
-359.645300 	 -20.393370 
-360.673900 	 -20.327650 
-361.657800 	 -20.261150 
-362.650400 	 -20.185550 
-363.672700 	 -20.112300 
-364.675400 	 -20.016580 
-365.688900 	 -19.906150 
-366.678100 	 -19.808570 
-367.690300 	 -19.700220 
-368.686700 	 -19.595200 
-369.694000 	 -19.501870 
-370.706700 	 -19.394890 
-371.702200 	 -19.283140 
-372.702100 	 -19.168690 
-373.705100 	 -19.049570 
-374.701000 	 -18.925560 
-375.696800 	 -18.791460 
-376.701900 	 -18.658750 
-377.706000 	 -18.518530 
-378.703700 	 -18.371470 
-379.698400 	 -18.244580 
-380.719100 	 -18.112550 
-381.753400 	 -17.972590 
-382.752400 	 -17.840630 
-383.748900 	 -17.687810 
-384.710500 	 -17.523290 
-385.666000 	 -17.365290 
-386.664000 	 -17.206580 
-387.673200 	 -17.053610 
-388.667300 	 -16.906100 
-389.682500 	 -16.762310 
-390.675500 	 -16.615040 
-391.652600 	 -16.458020 
-392.660500 	 -16.305930 
-393.648900 	 -16.145070 
-394.660500 	 -15.970640 
-395.672000 	 -15.804060 
-396.672100 	 -15.630570 
-397.647300 	 -15.451240 
-398.620600 	 -15.293220 
-399.615200 	 -15.135060 
-400.622300 	 -14.977920 
-401.631700 	 -14.826550 
-402.659600 	 -14.665060 
-403.664700 	 -14.500010 
-404.658800 	 -14.331390 
-405.656000 	 -14.165480 
-406.650200 	 -14.003890 
-407.616900 	 -13.838230 
-408.609500 	 -13.678110 
-409.611200 	 -13.519120 
-410.612100 	 -13.352760 
-411.635400 	 -13.198220 
-412.645900 	 -13.044030 
-413.634300 	 -12.884630 
-414.646700 	 -12.731190 
-415.651500 	 -12.568070 
-416.652100 	 -12.406880 
-417.677100 	 -12.251730 
-418.675100 	 -12.100960 
-419.704000 	 -11.958540 
-420.719500 	 -11.814160 
-421.716600 	 -11.669240 
-422.706800 	 -11.524610 
-423.682200 	 -11.376710 
-424.650200 	 -11.233690 
-425.648500 	 -11.093230 
-426.659600 	 -10.951780 
-427.654600 	 -10.816450 
-428.667600 	 -10.680580 
-429.670700 	 -10.548950 
-430.666600 	 -10.426320 
-431.690200 	 -10.299980 
-432.697300 	 -10.176370 
-433.710100 	 -10.050060 
-434.682200 	 -9.918206 
-435.660200 	 -9.790526 
-436.651100 	 -9.666777 
-437.627700 	 -9.548723 
-438.650700 	 -9.437318 
-439.653400 	 -9.326578 
-440.675200 	 -9.218227 
-441.695700 	 -9.108847 
-442.703500 	 -8.998259 
-443.694600 	 -8.893501 
-444.692700 	 -8.785976 
-445.691700 	 -8.680015 
-446.674800 	 -8.579532 
-447.694700 	 -8.475468 
-448.649700 	 -8.375693 
-449.642400 	 -8.282899 
-450.650100 	 -8.190279 
-451.656400 	 -8.099964 
-452.687200 	 -8.010081 
-453.680500 	 -7.915079 
-454.673000 	 -7.819725 
-455.663200 	 -7.725739 
-456.647200 	 -7.638845 
-457.655500 	 -7.557319 
-458.651200 	 -7.479630 
-459.641700 	 -7.408855 
-460.649600 	 -7.336682 
-461.641200 	 -7.265306 
-462.646300 	 -7.199934 
-463.671800 	 -7.130538 
-464.682800 	 -7.061856 
-465.698700 	 -6.994029 
-466.711000 	 -6.924379 
-467.700900 	 -6.857736 
-468.687900 	 -6.793694 
-469.682400 	 -6.733935 
-470.698500 	 -6.676455 
-471.689500 	 -6.618320 
-472.700500 	 -6.562075 
-473.717400 	 -6.506145 
-474.695600 	 -6.448623 
-475.684300 	 -6.398764 
-476.677100 	 -6.347733 
-477.649500 	 -6.296729 
-478.658900 	 -6.250947 
-479.685200 	 -6.196686 
-480.684500 	 -6.147827 
-481.675100 	 -6.098106 
-482.683500 	 -6.048261 
-483.666800 	 -6.005687 
-484.683700 	 -5.962036 
-485.701000 	 -5.921391 
-486.688800 	 -5.881714 
-487.693300 	 -5.839569 
-488.679600 	 -5.801101 
-489.674700 	 -5.761669 
-490.658800 	 -5.722213 
-491.654200 	 -5.686817 
-492.640300 	 -5.649336 
-493.649700 	 -5.614130 
-494.649600 	 -5.582509 
-495.656700 	 -5.548824 
-496.667700 	 -5.516619 
-497.659100 	 -5.485240 
-498.673500 	 -5.453509 
-499.669800 	 -5.422215 
-500.649400 	 -5.390825 
-501.652200 	 -5.362303 
-502.649700 	 -5.335259 
-503.642100 	 -5.310352 
-504.686800 	 -5.289128 
-505.677700 	 -5.266697 
-506.666000 	 -5.243359 
-507.670400 	 -5.222615 
-508.657700 	 -5.199686 
-509.652900 	 -5.177321 
-510.652800 	 -5.156855 
-511.638900 	 -5.136323 
-512.602100 	 -5.118293 
-513.599100 	 -5.101713 
-514.611500 	 -5.086686 
-515.638800 	 -5.071558 
-516.672300 	 -5.056173 
-517.692300 	 -5.041743 
-518.713300 	 -5.026979 
-519.694600 	 -5.011637 
-520.706000 	 -4.997644 
-521.699100 	 -4.984298 
-522.668500 	 -4.970225 
-523.687000 	 -4.958336 
-524.681100 	 -4.947074 
-525.681800 	 -4.933393 
-526.701700 	 -4.923446 
-527.687600 	 -4.913406 
-528.706700 	 -4.902060 
-529.711700 	 -4.893355 
-530.703700 	 -4.883427 
-531.702000 	 -4.876266 
-532.667800 	 -4.869454 
-533.655800 	 -4.862528 
-534.662000 	 -4.856135 
-535.659700 	 -4.846590 
-536.678700 	 -4.838426 
-537.677900 	 -4.830304 
-538.653200 	 -4.821187 
-539.666600 	 -4.814367 
-540.650500 	 -4.807438 
-541.657900 	 -4.801042 
-542.690900 	 -4.795839 
-543.691000 	 -4.789635 
-544.689900 	 -4.785754 
-545.696700 	 -4.782512 
-546.677900 	 -4.778463 
-547.683100 	 -4.775282 
-548.694200 	 -4.770632 
-549.678300 	 -4.766499 
-550.669600 	 -4.764129 
-551.637000 	 -4.761882 
-552.615900 	 -4.761250 
-553.622800 	 -4.760588 
-554.629800 	 -4.759060 
-555.637000 	 -4.758543 
-556.654800 	 -4.755552 
-557.650400 	 -4.751382 
-558.668200 	 -4.748244 
-559.664300 	 -4.743128 
-560.653400 	 -4.740321 
-561.653100 	 -4.738820 
-562.623600 	 -4.736130 
-563.617400 	 -4.735442 
-564.593400 	 -4.733862 
-565.600500 	 -4.731186 
-566.623400 	 -4.728825 
-567.630000 	 -4.725597 
-568.649200 	 -4.722814 
-569.661600 	 -4.720850 
-570.649000 	 -4.720286 
-571.663300 	 -4.720411 
-572.697900 	 -4.720510 
-573.681200 	 -4.719515 
-574.677000 	 -4.718793 
-575.689400 	 -4.716748 
-576.640700 	 -4.714415 
-577.630200 	 -4.714049 
-578.638300 	 -4.712037 
-579.629200 	 -4.710567 
-580.655200 	 -4.708144 
-581.667800 	 -4.706201 
-582.667800 	 -4.704371 
-583.657300 	 -4.702531 
-584.642200 	 -4.702509 
-585.635500 	 -4.700228 
-586.621800 	 -4.697310 
-587.625500 	 -4.696080 
-588.624600 	 -4.694431 
-589.614700 	 -4.693063 
-590.609400 	 -4.693905 
-591.586400 	 -4.693814 
-592.597300 	 -4.692414 
-593.604200 	 -4.692042 
-594.617300 	 -4.691199 
-595.638900 	 -4.689850 
-596.615300 	 -4.688791 
-597.618000 	 -4.687706 
