WE1 Volts(mV)    WE1 Idir (uA) 
-600.227700 	 -4.804494 
-599.994100 	 -4.787866 
-599.508700 	 -4.763984 
-598.773600 	 -4.734807 
-597.773100 	 -4.696424 
-596.774400 	 -4.671015 
-595.789600 	 -4.646158 
-594.799000 	 -4.620097 
-593.787000 	 -4.596600 
-592.778700 	 -4.571237 
-591.754000 	 -4.546437 
-590.732800 	 -4.522670 
-589.757200 	 -4.499606 
-588.767000 	 -4.477918 
-587.766400 	 -4.457076 
-586.779400 	 -4.436112 
-585.787400 	 -4.415918 
-584.789900 	 -4.395586 
-583.807400 	 -4.375404 
-582.822300 	 -4.355932 
-581.827800 	 -4.334127 
-580.815900 	 -4.312582 
-579.786600 	 -4.290093 
-578.765500 	 -4.268604 
-577.744100 	 -4.250069 
-576.749500 	 -4.230474 
-575.768700 	 -4.211550 
-574.780000 	 -4.192064 
-573.775600 	 -4.171741 
-572.783800 	 -4.155046 
-571.791800 	 -4.137336 
-570.778600 	 -4.119670 
-569.785600 	 -4.102170 
-568.772500 	 -4.082110 
-567.745400 	 -4.063184 
-566.750400 	 -4.046419 
-565.747600 	 -4.028836 
-564.760800 	 -4.011425 
-563.794900 	 -3.993592 
-562.800500 	 -3.973216 
-561.800000 	 -3.955632 
-560.785000 	 -3.938918 
-559.770800 	 -3.923535 
-558.770100 	 -3.908614 
-557.786600 	 -3.891358 
-556.803000 	 -3.874778 
-555.806600 	 -3.856853 
-554.803200 	 -3.839335 
-553.812000 	 -3.822599 
-552.800100 	 -3.802843 
-551.795400 	 -3.785207 
-550.795300 	 -3.768088 
-549.765300 	 -3.750585 
-548.759900 	 -3.735393 
-547.750200 	 -3.719718 
-546.756300 	 -3.704031 
-545.768000 	 -3.689494 
-544.772300 	 -3.674106 
-543.804800 	 -3.658537 
-542.812900 	 -3.641484 
-541.793100 	 -3.622434 
-540.788600 	 -3.605062 
-539.773200 	 -3.587175 
-538.772900 	 -3.570237 
-537.791900 	 -3.556139 
-536.789700 	 -3.539421 
-535.789100 	 -3.523462 
-534.784900 	 -3.508201 
-533.777700 	 -3.492598 
-532.786600 	 -3.477731 
-531.788100 	 -3.461687 
-530.778900 	 -3.445108 
-529.807300 	 -3.428001 
-528.797700 	 -3.410616 
-527.795300 	 -3.395840 
-526.803300 	 -3.379915 
-525.769800 	 -3.362497 
-524.787800 	 -3.347018 
-523.786300 	 -3.330582 
-522.768700 	 -3.315089 
-521.788100 	 -3.302914 
-520.786000 	 -3.288942 
-519.782600 	 -3.273930 
-518.783300 	 -3.259165 
-517.759900 	 -3.242643 
-516.755700 	 -3.227674 
-515.747200 	 -3.212214 
-514.752900 	 -3.197048 
-513.788500 	 -3.180737 
-512.767300 	 -3.163646 
-511.764200 	 -3.149226 
-510.772000 	 -3.134078 
-509.747400 	 -3.119808 
-508.760300 	 -3.106690 
-507.773300 	 -3.091651 
-506.784400 	 -3.077389 
-505.794000 	 -3.063008 
-504.814200 	 -3.047973 
-503.809300 	 -3.032825 
-502.793200 	 -3.017639 
-501.793000 	 -3.002980 
-500.775800 	 -2.987259 
-499.789600 	 -2.973148 
-498.807500 	 -2.958515 
-497.802900 	 -2.942250 
-496.812300 	 -2.927528 
-495.806300 	 -2.912043 
-494.812500 	 -2.896363 
-493.810000 	 -2.881659 
-492.836100 	 -2.866060 
-491.826300 	 -2.849824 
-490.804400 	 -2.834110 
-489.804600 	 -2.818683 
-488.787400 	 -2.807099 
-487.811100 	 -2.792746 
-486.833600 	 -2.779091 
-485.842300 	 -2.763761 
-484.863300 	 -2.746966 
-483.856500 	 -2.733307 
-482.855600 	 -2.719289 
-481.870000 	 -2.705176 
-480.844300 	 -2.688470 
-479.856500 	 -2.671779 
-478.852100 	 -2.653477 
-477.830300 	 -2.634490 
-476.822200 	 -2.616150 
-475.820600 	 -2.597965 
-474.795000 	 -2.580398 
-473.822200 	 -2.565514 
-472.813700 	 -2.551173 
-471.806400 	 -2.537196 
-470.819000 	 -2.522259 
-469.786800 	 -2.505558 
-468.796000 	 -2.488240 
-467.783600 	 -2.468663 
-466.786000 	 -2.447892 
-465.779200 	 -2.427678 
-464.763300 	 -2.405022 
-463.769700 	 -2.384731 
-462.760500 	 -2.366295 
-461.785600 	 -2.346953 
-460.819700 	 -2.330195 
-459.811100 	 -2.311729 
-458.808200 	 -2.292216 
-457.805600 	 -2.274353 
-456.786300 	 -2.251968 
-455.798700 	 -2.228508 
-454.811700 	 -2.206132 
-453.803300 	 -2.180317 
-452.819300 	 -2.157750 
-451.804200 	 -2.135618 
-450.786700 	 -2.111446 
-449.807400 	 -2.089062 
-448.790100 	 -2.066020 
-447.796100 	 -2.043593 
-446.811900 	 -2.020060 
-445.806600 	 -1.994329 
-444.817700 	 -1.969084 
-443.815900 	 -1.940907 
-442.817800 	 -1.912102 
-441.809000 	 -1.886622 
-440.810900 	 -1.856982 
-439.793700 	 -1.826111 
-438.794900 	 -1.796409 
-437.806200 	 -1.761898 
-436.807800 	 -1.729802 
-435.849700 	 -1.698572 
-434.844200 	 -1.666888 
-433.829800 	 -1.634479 
-432.808900 	 -1.599042 
-431.800200 	 -1.566379 
-430.810500 	 -1.531298 
-429.813900 	 -1.493162 
-428.845400 	 -1.458266 
-427.845500 	 -1.415916 
-426.835400 	 -1.368685 
-425.819100 	 -1.326885 
-424.806000 	 -1.281770 
-423.797100 	 -1.238384 
-422.787000 	 -1.199593 
-421.812200 	 -1.157639 
-420.802100 	 -1.113573 
-419.800500 	 -1.066767 
-418.814100 	 -1.018446 
-417.799300 	 -0.966043 
-416.787400 	 -0.907528 
-415.777000 	 -0.850557 
-414.752100 	 -0.790883 
-413.727200 	 -0.727390 
-412.713700 	 -0.672793 
-411.712400 	 -0.617877 
-410.728000 	 -0.562490 
-409.751300 	 -0.510800 
-408.782900 	 -0.453084 
-407.796600 	 -0.389609 
-406.789800 	 -0.322200 
-405.792500 	 -0.251998 
-404.785500 	 -0.181912 
-403.777800 	 -0.110952 
-402.786700 	 -0.041841 
-401.788900 	 0.028112 
-400.764700 	 0.105420 
-399.759100 	 0.180722 
-398.765600 	 0.257164 
-397.770400 	 0.340107 
-396.813000 	 0.417504 
-395.821700 	 0.500947 
-394.826300 	 0.590198 
-393.820600 	 0.675152 
-392.809600 	 0.763637 
-391.822800 	 0.848580 
-390.831800 	 0.932146 
-389.822600 	 1.024925 
-388.808200 	 1.118770 
-387.809400 	 1.223821 
-386.807300 	 1.328993 
-385.826600 	 1.429530 
-384.844000 	 1.531804 
-383.831200 	 1.628778 
-382.845600 	 1.727906 
-381.846300 	 1.833980 
-380.843900 	 1.934999 
-379.862000 	 2.040171 
-378.866600 	 2.151233 
-377.867400 	 2.260513 
-376.873100 	 2.387183 
-375.853600 	 2.516550 
-374.819900 	 2.643495 
-373.817100 	 2.771153 
-372.817800 	 2.885582 
-371.856200 	 2.996895 
-370.877900 	 3.110646 
-369.899700 	 3.229920 
-368.914400 	 3.360806 
-367.877900 	 3.493546 
-366.866600 	 3.632331 
-365.827000 	 3.776855 
-364.809800 	 3.911194 
-363.807700 	 4.051692 
-362.806800 	 4.194138 
-361.814000 	 4.320613 
-360.818100 	 4.452260 
-359.840900 	 4.581960 
-358.836700 	 4.703656 
-357.832500 	 4.840557 
-356.833400 	 4.984840 
-355.820600 	 5.131799 
-354.827400 	 5.278649 
-353.856800 	 5.421988 
-352.869600 	 5.559980 
-351.889500 	 5.689688 
-350.902500 	 5.826114 
-349.888900 	 5.971994 
-348.883900 	 6.108987 
-347.881800 	 6.251368 
-346.872400 	 6.399189 
-345.890400 	 6.532838 
-344.888100 	 6.676522 
-343.885800 	 6.825973 
-342.887300 	 6.965769 
-341.895500 	 7.111015 
-340.899200 	 7.252679 
-339.896800 	 7.393399 
-338.902500 	 7.534750 
-337.882600 	 7.681870 
-336.865400 	 7.842752 
-335.853300 	 7.989163 
-334.839200 	 8.129839 
-333.842500 	 8.274085 
-332.865600 	 8.390672 
-331.870600 	 8.516819 
-330.890000 	 8.655677 
-329.890900 	 8.777594 
-328.898300 	 8.914724 
-327.900800 	 9.055649 
-326.911100 	 9.193786 
-325.912600 	 9.344078 
-324.887100 	 9.491243 
-323.871700 	 9.637475 
-322.847700 	 9.768337 
-321.837200 	 9.879165 
-320.858600 	 9.988960 
-319.880100 	 10.090570 
-318.893900 	 10.198730 
-317.888900 	 10.326680 
-316.861800 	 10.454730 
-315.865300 	 10.583680 
-314.834500 	 10.713560 
-313.845800 	 10.826520 
-312.843500 	 10.940240 
-311.831500 	 11.047780 
-310.832800 	 11.149330 
-309.812500 	 11.250750 
-308.824600 	 11.336790 
-307.813100 	 11.422500 
-306.834000 	 11.514610 
-305.844800 	 11.606720 
-304.833700 	 11.708650 
-303.838100 	 11.801360 
-302.833300 	 11.879180 
-301.839500 	 11.953140 
-300.858500 	 12.010340 
-299.871900 	 12.077160 
-298.875700 	 12.152480 
-297.866900 	 12.222290 
-296.863700 	 12.305760 
-295.856600 	 12.380150 
-294.870100 	 12.439130 
-293.887500 	 12.502800 
-292.880800 	 12.555540 
-291.880200 	 12.596850 
-290.885500 	 12.636300 
-289.893700 	 12.669380 
-288.897400 	 12.704230 
-287.901200 	 12.747180 
-286.877100 	 12.802330 
-285.846600 	 12.868080 
-284.839800 	 12.908420 
-283.836000 	 12.940430 
-282.832100 	 12.956800 
-281.872300 	 12.936110 
-280.904600 	 12.933270 
-279.923200 	 12.935490 
-278.938700 	 12.931210 
-277.925600 	 12.945490 
-276.912200 	 12.960200 
-275.900500 	 12.968290 
-274.891400 	 12.976210 
-273.890600 	 12.980100 
-272.864000 	 12.982320 
-271.861500 	 12.958810 
-270.872300 	 12.927870 
-269.866500 	 12.900860 
-268.888300 	 12.849360 
-267.890300 	 12.817460 
-266.881500 	 12.806030 
-265.882800 	 12.774230 
-264.864200 	 12.750290 
-263.874500 	 12.721820 
-262.880400 	 12.667210 
-261.886100 	 12.611880 
-260.898900 	 12.555040 
-259.859900 	 12.496510 
-258.853500 	 12.428500 
-257.844000 	 12.356900 
-256.831200 	 12.293300 
-255.852700 	 12.215690 
-254.853400 	 12.140380 
-253.847500 	 12.077280 
-252.873700 	 11.983370 
-251.889300 	 11.881020 
-250.907700 	 11.784050 
-249.913300 	 11.669300 
-248.892100 	 11.569760 
-247.865800 	 11.485030 
-246.841700 	 11.400090 
-245.841500 	 11.311910 
-244.863300 	 11.210780 
-243.888200 	 11.101760 
-242.897900 	 10.978290 
-241.903800 	 10.847690 
-240.901800 	 10.728950 
-239.891700 	 10.602310 
-238.891300 	 10.474970 
-237.886600 	 10.368210 
-236.869000 	 10.251670 
-235.868000 	 10.139390 
-234.857500 	 10.034780 
-233.839400 	 9.905540 
-232.831600 	 9.771897 
-231.838200 	 9.626477 
-230.841700 	 9.468185 
-229.861300 	 9.323010 
-228.884700 	 9.180344 
-227.876100 	 9.051003 
-226.872200 	 8.930514 
-225.873600 	 8.802216 
-224.842400 	 8.677018 
-223.848700 	 8.544595 
-222.860300 	 8.404907 
-221.851400 	 8.271889 
-220.868200 	 8.126289 
-219.869100 	 7.981778 
-218.860700 	 7.842391 
-217.870800 	 7.695514 
-216.863800 	 7.568974 
-215.847800 	 7.447381 
-214.852500 	 7.320365 
-213.841700 	 7.197021 
-212.859600 	 7.060836 
-211.867200 	 6.919719 
-210.864300 	 6.784143 
-209.873600 	 6.650995 
-208.850600 	 6.526978 
-207.855000 	 6.400103 
-206.855000 	 6.274827 
-205.834100 	 6.152128 
-204.848400 	 6.018946 
-203.851700 	 5.894712 
-202.844000 	 5.772034 
-201.868300 	 5.638851 
-200.871100 	 5.517515 
-199.865400 	 5.399607 
-198.868000 	 5.280601 
-197.864500 	 5.175730 
-196.866400 	 5.066081 
-195.874600 	 4.958080 
-194.869900 	 4.854412 
-193.876100 	 4.745488 
-192.863600 	 4.643300 
-191.862000 	 4.536784 
-190.889800 	 4.431972 
-189.888900 	 4.339563 
-188.905300 	 4.240135 
-187.916000 	 4.151905 
-186.897000 	 4.065407 
-185.909200 	 3.970237 
-184.908100 	 3.886346 
-183.902700 	 3.800304 
-182.920700 	 3.714606 
-181.904600 	 3.629835 
-180.921200 	 3.545667 
-179.934000 	 3.461281 
-178.948700 	 3.378230 
-177.966500 	 3.302566 
-176.951500 	 3.234319 
-175.953800 	 3.165608 
-174.943700 	 3.099725 
-173.923800 	 3.035774 
-172.939100 	 2.963364 
-171.917100 	 2.894326 
-170.900200 	 2.829103 
-169.903800 	 2.759779 
-168.890400 	 2.696855 
-167.919900 	 2.636569 
-166.928300 	 2.578384 
-165.913800 	 2.523693 
-164.910300 	 2.471608 
-163.891000 	 2.420437 
-162.892900 	 2.365817 
-161.910100 	 2.308860 
-160.908600 	 2.257485 
-159.902700 	 2.204849 
-158.902700 	 2.155613 
-157.884100 	 2.114905 
-156.888500 	 2.069065 
-155.893700 	 2.024681 
-154.879700 	 1.980811 
-153.909300 	 1.932468 
-152.904000 	 1.889539 
-151.923600 	 1.845868 
-150.935300 	 1.804950 
-149.930600 	 1.769300 
-148.945300 	 1.732044 
-147.926100 	 1.699836 
-146.932900 	 1.668720 
-145.935100 	 1.633798 
-144.924000 	 1.603241 
-143.929400 	 1.569532 
-142.915200 	 1.535158 
-141.906600 	 1.503031 
-140.917100 	 1.467238 
-139.930400 	 1.438441 
-138.927900 	 1.411550 
-137.935400 	 1.386661 
-136.938400 	 1.366866 
-135.915700 	 1.344737 
-134.927100 	 1.319899 
-133.910400 	 1.297086 
-132.894300 	 1.271009 
-131.901600 	 1.244246 
-130.913400 	 1.220232 
-129.944700 	 1.194943 
-128.952700 	 1.173448 
-127.972400 	 1.153464 
-126.958700 	 1.138663 
-125.943000 	 1.126627 
-124.925000 	 1.109146 
-123.906800 	 1.095177 
-122.902200 	 1.077638 
-121.906800 	 1.055147 
-120.936400 	 1.040320 
-119.923400 	 1.024057 
-118.924700 	 1.006379 
-117.917200 	 0.992771 
-116.898100 	 0.980599 
-115.902700 	 0.967956 
-114.911800 	 0.957148 
-113.918800 	 0.947421 
-112.909900 	 0.937251 
-111.908400 	 0.924892 
-110.917800 	 0.916545 
-109.897900 	 0.910756 
-108.921600 	 0.898987 
-107.933900 	 0.892900 
-106.913700 	 0.887690 
-105.927200 	 0.876353 
-104.913800 	 0.868526 
-103.894600 	 0.860166 
-102.892300 	 0.846780 
-101.895600 	 0.835206 
-100.912500 	 0.825793 
-99.923080 	 0.818230 
-98.936760 	 0.812009 
-97.932370 	 0.808124 
-96.913450 	 0.804330 
-95.923280 	 0.795380 
-94.925510 	 0.788568 
-93.905330 	 0.785095 
-92.905080 	 0.775202 
-91.908280 	 0.767940 
-90.910530 	 0.762217 
-89.935530 	 0.752124 
-88.952580 	 0.749709 
-87.936930 	 0.750998 
-86.933820 	 0.749464 
-85.926180 	 0.749278 
-84.926880 	 0.744932 
-83.921550 	 0.738226 
-82.916770 	 0.730544 
-81.916810 	 0.723722 
-80.905760 	 0.721992 
-79.924600 	 0.716013 
-78.933010 	 0.712799 
-77.929850 	 0.713845 
-76.926320 	 0.708644 
-75.899620 	 0.708736 
-74.888790 	 0.709679 
-73.893610 	 0.704756 
-72.901860 	 0.702521 
-71.919620 	 0.701726 
-70.934100 	 0.697868 
-69.942710 	 0.697807 
-68.955900 	 0.697177 
-67.943720 	 0.698627 
-66.939040 	 0.698782 
-65.934940 	 0.697057 
-64.927820 	 0.698647 
-63.942230 	 0.694389 
-62.924370 	 0.693185 
-61.920600 	 0.695886 
-60.921410 	 0.693882 
-59.921910 	 0.695865 
-58.923070 	 0.698306 
-57.909540 	 0.696177 
-56.906910 	 0.698480 
-55.890490 	 0.699429 
-54.878720 	 0.698437 
-53.884910 	 0.698776 
-52.863200 	 0.694719 
-51.881140 	 0.691188 
-50.899420 	 0.690159 
-49.887570 	 0.691104 
-48.900870 	 0.698384 
-47.907620 	 0.703365 
-46.916850 	 0.706594 
-45.923380 	 0.709291 
-44.941930 	 0.705088 
-43.929490 	 0.700569 
-42.920520 	 0.703093 
-41.927440 	 0.701806 
-40.915950 	 0.704510 
-39.934910 	 0.709810 
-38.935680 	 0.709113 
-37.937370 	 0.712624 
-36.940640 	 0.717612 
-35.921100 	 0.721653 
-34.957090 	 0.724005 
-33.969140 	 0.723485 
-32.963780 	 0.726854 
-31.968930 	 0.727374 
-30.926760 	 0.731523 
-29.899930 	 0.739786 
-28.900870 	 0.736813 
-27.892400 	 0.741208 
-26.895570 	 0.746411 
-25.922290 	 0.747263 
-24.905130 	 0.755374 
-23.913630 	 0.762629 
-22.915300 	 0.763508 
-21.914560 	 0.769630 
-20.924320 	 0.772557 
-19.911790 	 0.774164 
-18.915880 	 0.778957 
-17.909390 	 0.784971 
-16.904390 	 0.796080 
-15.914360 	 0.800657 
-14.918190 	 0.807632 
-13.917600 	 0.813766 
-12.947170 	 0.813184 
-11.947760 	 0.819404 
-10.929200 	 0.829273 
-9.920404 	 0.832892 
-8.896628 	 0.842074 
-7.890437 	 0.850646 
-6.903117 	 0.856016 
-5.885022 	 0.866007 
-4.876651 	 0.873961 
-3.887267 	 0.873563 
-2.913007 	 0.876407 
-1.990044 	 0.875033 
-1.027721 	 0.880113 
-0.061022 	 0.892848 
0.934999 	 0.903890 
1.974277 	 0.921689 
2.967045 	 0.931008 
3.975053 	 0.940281 
4.994700 	 0.949026 
5.980386 	 0.952784 
6.986148 	 0.963900 
7.974360 	 0.972607 
8.946407 	 0.982650 
9.936270 	 0.994794 
10.927830 	 1.002205 
11.923990 	 1.015706 
12.934770 	 1.030184 
13.942110 	 1.042076 
14.943470 	 1.056122 
15.957740 	 1.065177 
16.945140 	 1.072052 
17.934800 	 1.080839 
18.933580 	 1.088948 
19.937010 	 1.103313 
20.953190 	 1.120157 
21.944470 	 1.134741 
22.944560 	 1.155127 
23.949010 	 1.171356 
24.927440 	 1.183160 
25.922340 	 1.200681 
26.927970 	 1.212700 
27.899630 	 1.225561 
28.918040 	 1.240504 
29.926930 	 1.255061 
30.906010 	 1.272588 
31.917680 	 1.290392 
32.919870 	 1.314803 
33.927780 	 1.340651 
34.929800 	 1.360190 
35.920470 	 1.382397 
36.917300 	 1.400838 
37.908680 	 1.412631 
38.909820 	 1.435740 
39.925750 	 1.459439 
40.908910 	 1.479835 
41.905760 	 1.506932 
42.924200 	 1.531200 
43.914510 	 1.555244 
44.915450 	 1.581275 
45.919310 	 1.608068 
46.932170 	 1.635410 
47.942080 	 1.654557 
48.936390 	 1.677385 
49.932800 	 1.705072 
50.900380 	 1.727413 
51.898820 	 1.761057 
52.900310 	 1.796516 
53.889230 	 1.821808 
54.878150 	 1.852445 
55.865600 	 1.882837 
56.868420 	 1.908605 
57.881420 	 1.941051 
58.883930 	 1.973897 
59.884060 	 2.010241 
60.874820 	 2.045128 
61.871960 	 2.083927 
62.889130 	 2.128371 
63.902260 	 2.166020 
64.894520 	 2.207983 
65.894490 	 2.253871 
66.889240 	 2.287120 
67.854290 	 2.323843 
68.868800 	 2.366642 
69.864670 	 2.402753 
70.877940 	 2.450944 
71.894780 	 2.504703 
72.901050 	 2.556842 
73.910900 	 2.610544 
74.881750 	 2.659648 
75.876590 	 2.707904 
76.876250 	 2.753265 
77.864940 	 2.800068 
78.893030 	 2.854119 
79.887990 	 2.904265 
80.867440 	 2.957684 
81.871640 	 3.020650 
82.857320 	 3.079500 
83.879360 	 3.144427 
84.901780 	 3.213173 
85.923490 	 3.272634 
86.931840 	 3.332676 
87.929660 	 3.390170 
88.912760 	 3.445711 
89.887440 	 3.508209 
90.863480 	 3.572181 
91.851550 	 3.643036 
92.858950 	 3.714755 
93.873500 	 3.783992 
94.904180 	 3.857092 
95.913720 	 3.926148 
96.932140 	 3.995223 
97.927140 	 4.069816 
98.918790 	 4.135280 
99.916570 	 4.203740 
100.913100 	 4.276549 
101.915900 	 4.344310 
102.916000 	 4.423663 
103.917800 	 4.503484 
104.902500 	 4.578489 
105.897600 	 4.658049 
106.879100 	 4.729439 
107.888300 	 4.799039 
108.881700 	 4.870657 
109.861100 	 4.942325 
110.860000 	 5.029386 
111.845200 	 5.112095 
112.843500 	 5.199685 
113.854200 	 5.291564 
114.864200 	 5.367398 
115.840900 	 5.453160 
116.830500 	 5.542355 
117.828200 	 5.621687 
118.838500 	 5.709992 
119.845500 	 5.798041 
120.868400 	 5.879654 
121.875900 	 5.975607 
122.873100 	 6.073764 
123.902700 	 6.173943 
124.902500 	 6.269927 
125.911400 	 6.358986 
126.912900 	 6.448666 
127.903200 	 6.533702 
128.898600 	 6.625184 
129.888600 	 6.730968 
130.876100 	 6.829254 
131.870800 	 6.928044 
132.862700 	 7.027088 
133.850300 	 7.111973 
134.830700 	 7.207106 
135.834000 	 7.309930 
136.844600 	 7.418703 
137.865400 	 7.532014 
138.891000 	 7.636543 
139.875700 	 7.736414 
140.870700 	 7.830760 
141.850800 	 7.919790 
142.840700 	 8.013643 
143.862800 	 8.104657 
144.849600 	 8.195968 
145.869400 	 8.298544 
146.878500 	 8.397023 
147.878700 	 8.506609 
148.920000 	 8.619690 
149.927000 	 8.716658 
150.924600 	 8.813408 
151.916200 	 8.895811 
152.874300 	 8.967121 
153.870800 	 9.047822 
154.870500 	 9.129024 
155.870200 	 9.216939 
156.883200 	 9.311753 
157.864000 	 9.404961 
158.862900 	 9.499262 
159.861200 	 9.587095 
160.873600 	 9.673252 
161.881500 	 9.761273 
162.895800 	 9.834779 
163.895600 	 9.912076 
164.880000 	 9.989297 
165.867500 	 10.055020 
166.843300 	 10.138960 
167.840700 	 10.225680 
168.853700 	 10.306030 
169.876700 	 10.390270 
170.886800 	 10.464760 
171.878300 	 10.528840 
172.850100 	 10.592980 
173.835600 	 10.660140 
174.858100 	 10.733820 
175.880100 	 10.802580 
176.894000 	 10.873170 
177.904100 	 10.944950 
178.862700 	 10.999780 
179.865900 	 11.063260 
180.867900 	 11.129320 
181.851400 	 11.176800 
182.857300 	 11.231560 
183.829600 	 11.284440 
184.813300 	 11.331070 
185.809600 	 11.391790 
186.820100 	 11.458750 
187.851400 	 11.527280 
188.872300 	 11.588840 
189.889900 	 11.640150 
190.900600 	 11.686830 
191.870700 	 11.719590 
192.865500 	 11.757140 
193.851700 	 11.806360 
194.851100 	 11.843090 
195.857700 	 11.888470 
196.861500 	 11.941880 
197.879300 	 11.983370 
198.882300 	 12.034880 
199.906700 	 12.085420 
200.925900 	 12.121690 
201.930900 	 12.152100 
202.928800 	 12.176380 
203.914400 	 12.197470 
204.895300 	 12.220830 
205.861200 	 12.248750 
206.844600 	 12.287730 
207.841400 	 12.320580 
208.830800 	 12.351540 
209.841400 	 12.387580 
210.849200 	 12.407450 
211.840400 	 12.430230 
212.861500 	 12.459090 
213.857500 	 12.478450 
214.854300 	 12.502720 
215.847800 	 12.525380 
216.833100 	 12.544610 
217.830000 	 12.567600 
218.841000 	 12.589490 
219.842000 	 12.613020 
220.835400 	 12.631070 
221.829800 	 12.641110 
222.820700 	 12.654600 
223.832300 	 12.667340 
224.833600 	 12.683630 
225.873800 	 12.711260 
226.872400 	 12.729220 
227.856900 	 12.744800 
228.872700 	 12.758370 
229.841500 	 12.761650 
230.827900 	 12.772530 
231.823200 	 12.781300 
232.793300 	 12.788460 
233.783700 	 12.799130 
234.766800 	 12.806470 
235.772800 	 12.817520 
236.786000 	 12.833000 
237.794700 	 12.846600 
238.837800 	 12.863360 
239.852400 	 12.873520 
240.851300 	 12.877440 
241.858800 	 12.881570 
242.822900 	 12.879180 
243.819600 	 12.885330 
244.816700 	 12.895630 
245.818200 	 12.902860 
246.833000 	 12.919140 
247.812300 	 12.931250 
248.812400 	 12.939500 
249.817100 	 12.951090 
250.837300 	 12.957980 
251.890200 	 12.962890 
252.892200 	 12.967000 
253.884500 	 12.969510 
254.868100 	 12.972610 
255.812800 	 12.975630 
256.810500 	 12.985470 
257.827100 	 12.999330 
258.829300 	 13.006010 
259.868100 	 13.016800 
260.878100 	 13.024760 
261.850200 	 13.023620 
262.839300 	 13.031510 
263.820000 	 13.038430 
264.808400 	 13.043960 
265.810200 	 13.054680 
266.802800 	 13.062810 
267.777700 	 13.070800 
268.759200 	 13.078830 
269.760100 	 13.088070 
270.778400 	 13.100580 
271.773500 	 13.109780 
272.774600 	 13.120050 
273.782500 	 13.132220 
274.755600 	 13.141910 
275.775600 	 13.156080 
276.792000 	 13.174440 
277.785900 	 13.182210 
278.803600 	 13.192960 
279.816900 	 13.205100 
280.822300 	 13.210460 
281.820500 	 13.222970 
282.819800 	 13.235200 
283.808100 	 13.246610 
284.796400 	 13.259610 
285.763200 	 13.275390 
286.759200 	 13.295050 
287.773600 	 13.311090 
288.789000 	 13.328400 
289.843900 	 13.348060 
290.849400 	 13.359410 
291.833100 	 13.371960 
292.836500 	 13.385090 
293.808300 	 13.395190 
294.799000 	 13.410630 
295.803400 	 13.428650 
296.805700 	 13.448100 
297.820400 	 13.469600 
298.835400 	 13.490140 
299.853400 	 13.510420 
300.852800 	 13.529430 
301.851700 	 13.546440 
302.854900 	 13.566650 
303.845800 	 13.582860 
304.855400 	 13.598960 
305.857800 	 13.618490 
306.852500 	 13.635110 
307.838900 	 13.658310 
308.818400 	 13.683660 
309.823100 	 13.705240 
310.826800 	 13.728020 
311.849100 	 13.748360 
312.857100 	 13.767540 
313.839000 	 13.789860 
314.838700 	 13.812080 
315.818900 	 13.834520 
316.818100 	 13.858070 
317.845300 	 13.880120 
318.827500 	 13.904010 
319.835800 	 13.927660 
320.819300 	 13.952100 
321.807500 	 13.978460 
322.811100 	 13.999680 
323.807000 	 14.024400 
324.811700 	 14.050930 
325.808800 	 14.075330 
326.814400 	 14.106110 
327.825300 	 14.134280 
328.835900 	 14.158730 
329.822400 	 14.184450 
330.827100 	 14.208760 
331.815600 	 14.232030 
332.794400 	 14.256710 
333.786100 	 14.282350 
334.783900 	 14.310510 
335.769900 	 14.339130 
336.787000 	 14.371380 
337.809900 	 14.405040 
338.796600 	 14.432910 
339.819100 	 14.464200 
340.821800 	 14.493930 
341.818300 	 14.519770 
342.825700 	 14.548330 
343.809800 	 14.576210 
344.812100 	 14.601970 
345.810400 	 14.631820 
346.825000 	 14.664980 
347.854400 	 14.698590 
348.851700 	 14.732570 
349.832700 	 14.764950 
350.837700 	 14.796790 
351.822900 	 14.824650 
352.828600 	 14.854760 
353.863400 	 14.888450 
354.852500 	 14.916260 
355.844700 	 14.947200 
356.850300 	 14.979330 
357.835100 	 15.007200 
358.832900 	 15.039420 
359.854600 	 15.073140 
360.858500 	 15.102730 
361.850000 	 15.133330 
362.839000 	 15.163810 
363.830400 	 15.192460 
364.811100 	 15.221770 
365.822600 	 15.250110 
366.834700 	 15.282630 
367.831800 	 15.312330 
368.843200 	 15.342690 
369.836900 	 15.376140 
370.832500 	 15.402240 
371.829200 	 15.430730 
372.821700 	 15.460150 
373.811400 	 15.487440 
374.809900 	 15.517870 
375.808600 	 15.549260 
376.802400 	 15.578930 
377.818500 	 15.609080 
378.824100 	 15.638060 
379.823100 	 15.667000 
380.840600 	 15.694870 
381.844800 	 15.718690 
382.828100 	 15.744180 
383.824500 	 15.768140 
384.793300 	 15.793770 
385.779900 	 15.825900 
386.794200 	 15.855710 
387.799000 	 15.884920 
388.817000 	 15.913690 
389.814500 	 15.937620 
390.828600 	 15.963030 
391.832500 	 15.987170 
392.832600 	 16.011820 
393.844800 	 16.037240 
394.818600 	 16.060910 
395.801400 	 16.086960 
396.796200 	 16.114800 
397.786600 	 16.142190 
398.353700 	 16.060800 
398.404900 	 15.905240 
397.954400 	 15.682870 
397.014000 	 15.400480 
395.991200 	 15.172910 
394.976000 	 14.964080 
393.966100 	 14.766590 
392.946500 	 14.580590 
391.947300 	 14.405740 
390.951600 	 14.238730 
389.942100 	 14.081660 
388.951400 	 13.933280 
387.970900 	 13.785630 
386.972700 	 13.644030 
385.975900 	 13.507760 
384.948200 	 13.374120 
383.908300 	 13.249170 
382.924500 	 13.129510 
381.947600 	 13.013770 
380.972300 	 12.899440 
379.996700 	 12.786420 
379.001800 	 12.677490 
377.962900 	 12.572110 
376.954400 	 12.470900 
375.956800 	 12.373930 
374.944900 	 12.276490 
373.959300 	 12.181030 
372.952600 	 12.090790 
371.955100 	 12.002580 
370.955700 	 11.919150 
369.979400 	 11.838290 
368.986900 	 11.755760 
367.982500 	 11.674490 
366.955500 	 11.592570 
365.915800 	 11.511090 
364.904300 	 11.434590 
363.878100 	 11.360370 
362.902600 	 11.291640 
361.911500 	 11.225390 
360.925100 	 11.158630 
359.979800 	 11.093950 
358.984500 	 11.027780 
358.003800 	 10.961920 
357.006700 	 10.898290 
355.963300 	 10.831870 
354.960600 	 10.768000 
353.948000 	 10.706030 
352.941100 	 10.643540 
351.969100 	 10.588060 
350.963700 	 10.533980 
349.989700 	 10.479520 
349.003700 	 10.426900 
347.990800 	 10.372030 
346.981400 	 10.316230 
345.965600 	 10.263020 
344.966800 	 10.212420 
343.962400 	 10.163580 
342.962300 	 10.116080 
341.954500 	 10.068090 
340.933800 	 10.019740 
339.942300 	 9.968517 
338.957700 	 9.920559 
337.988000 	 9.873205 
336.996900 	 9.823356 
335.990500 	 9.778631 
334.991500 	 9.732729 
333.948000 	 9.688118 
332.949400 	 9.647743 
331.970400 	 9.609136 
330.971900 	 9.570886 
329.991300 	 9.532842 
328.987600 	 9.493128 
327.983400 	 9.451461 
326.967100 	 9.406491 
325.976800 	 9.364696 
325.007700 	 9.327394 
324.004400 	 9.287758 
323.022500 	 9.253199 
322.017200 	 9.216351 
321.000400 	 9.175816 
319.991000 	 9.137590 
319.002400 	 9.100489 
318.005200 	 9.062134 
316.993200 	 9.023377 
315.992000 	 8.984892 
314.972700 	 8.946493 
313.958500 	 8.909871 
312.966700 	 8.875725 
311.963600 	 8.845535 
310.969600 	 8.811996 
309.978600 	 8.778791 
308.998500 	 8.747721 
308.028100 	 8.711427 
307.048900 	 8.677242 
306.069400 	 8.646331 
305.053700 	 8.610071 
304.042500 	 8.576273 
303.007600 	 8.542391 
302.001200 	 8.505752 
300.997900 	 8.471575 
299.981600 	 8.436403 
298.985400 	 8.402039 
297.976800 	 8.366415 
296.955700 	 8.329022 
295.980300 	 8.294366 
294.993400 	 8.258905 
293.987300 	 8.224670 
292.993000 	 8.195473 
291.980800 	 8.162767 
290.970100 	 8.129673 
289.969000 	 8.096865 
288.966700 	 8.060571 
287.957800 	 8.025408 
286.947200 	 7.990454 
285.936900 	 7.954401 
284.923900 	 7.918653 
283.918200 	 7.881604 
282.917700 	 7.845598 
281.926800 	 7.810943 
280.957200 	 7.775492 
279.964000 	 7.740933 
278.989600 	 7.701757 
277.992600 	 7.660687 
276.977600 	 7.618546 
275.949200 	 7.573294 
274.933300 	 7.532438 
273.949900 	 7.492043 
272.947300 	 7.450827 
271.981000 	 7.414527 
270.990800 	 7.375350 
269.983200 	 7.333738 
269.004900 	 7.294529 
268.012800 	 7.249114 
266.998500 	 7.201372 
265.990500 	 7.153724 
264.972400 	 7.103152 
263.968300 	 7.055159 
262.955600 	 7.006272 
261.961400 	 6.960302 
260.991600 	 6.916026 
259.987700 	 6.864355 
259.012100 	 6.814773 
258.022000 	 6.762270 
257.018900 	 6.702455 
256.004400 	 6.647599 
254.986100 	 6.593291 
253.983100 	 6.533121 
252.945100 	 6.477853 
251.953600 	 6.420236 
250.985400 	 6.361154 
249.981000 	 6.300688 
248.997400 	 6.238368 
248.015900 	 6.175069 
246.996400 	 6.103165 
245.980600 	 6.031543 
244.980900 	 5.963634 
243.951200 	 5.888237 
242.962500 	 5.819968 
241.988700 	 5.757175 
240.993800 	 5.682136 
240.012000 	 5.608754 
238.986600 	 5.532082 
237.968400 	 5.447990 
236.961300 	 5.365061 
235.948400 	 5.280253 
234.974200 	 5.195245 
233.982700 	 5.106755 
232.966000 	 5.021422 
231.970700 	 4.941898 
230.977100 	 4.854502 
229.976500 	 4.762246 
229.005800 	 4.671581 
227.996400 	 4.561415 
226.973200 	 4.451873 
225.945000 	 4.344430 
224.936500 	 4.229788 
223.939900 	 4.126079 
222.955400 	 4.020344 
221.981900 	 3.913527 
220.991600 	 3.806529 
219.992100 	 3.689987 
218.994900 	 3.577231 
217.995600 	 3.459158 
216.989800 	 3.336226 
216.000100 	 3.215202 
214.988200 	 3.080328 
213.983700 	 2.945459 
212.967700 	 2.818108 
211.980900 	 2.682526 
210.995800 	 2.552066 
209.976900 	 2.422226 
208.990300 	 2.277473 
207.991400 	 2.142470 
206.986500 	 1.997023 
205.984800 	 1.844196 
205.016900 	 1.698048 
204.025100 	 1.543097 
203.036500 	 1.393234 
202.072500 	 1.242233 
201.060000 	 1.083694 
200.060800 	 0.924240 
199.052000 	 0.757492 
198.065900 	 0.588132 
197.075800 	 0.420111 
196.054000 	 0.236620 
195.064300 	 0.058298 
194.049700 	 -0.117661 
193.040300 	 -0.299657 
192.049200 	 -0.463941 
191.049400 	 -0.630754 
190.034700 	 -0.807756 
189.020100 	 -0.987026 
188.015000 	 -1.179437 
186.991900 	 -1.380258 
186.003300 	 -1.579168 
184.998000 	 -1.774938 
183.996900 	 -1.962107 
183.007300 	 -2.151124 
181.996700 	 -2.332790 
181.014500 	 -2.506547 
180.029900 	 -2.696836 
179.053700 	 -2.878499 
178.069500 	 -3.062664 
177.062900 	 -3.272385 
176.050800 	 -3.477170 
175.028700 	 -3.683931 
174.010600 	 -3.897313 
173.009500 	 -4.092900 
172.010900 	 -4.278409 
171.034800 	 -4.463745 
170.049300 	 -4.651466 
169.062900 	 -4.844563 
168.073900 	 -5.036492 
167.044400 	 -5.241891 
166.040200 	 -5.442023 
165.023100 	 -5.628744 
164.001000 	 -5.833878 
162.992900 	 -6.025680 
161.996200 	 -6.203492 
161.001200 	 -6.391024 
160.014100 	 -6.563297 
159.039800 	 -6.730481 
158.022200 	 -6.912607 
157.028900 	 -7.096575 
156.019500 	 -7.282835 
155.007900 	 -7.465161 
154.028100 	 -7.640006 
153.011500 	 -7.805656 
152.032600 	 -7.952625 
151.042100 	 -8.110010 
150.032200 	 -8.270762 
149.056800 	 -8.423197 
148.051400 	 -8.594326 
147.027400 	 -8.759740 
146.030200 	 -8.911983 
145.017300 	 -9.073105 
144.001500 	 -9.220235 
143.021100 	 -9.354048 
142.016100 	 -9.479773 
141.015500 	 -9.592356 
139.994000 	 -9.700789 
138.994600 	 -9.812048 
137.995500 	 -9.933345 
136.978900 	 -10.063810 
136.007800 	 -10.185890 
134.989500 	 -10.303430 
133.991400 	 -10.409160 
133.011900 	 -10.490770 
132.019300 	 -10.574190 
131.049500 	 -10.650330 
130.052300 	 -10.720670 
129.045600 	 -10.798510 
128.050300 	 -10.868550 
127.043000 	 -10.937690 
126.043300 	 -11.011400 
125.055300 	 -11.078440 
124.037500 	 -11.146000 
123.029900 	 -11.201820 
122.041800 	 -11.242770 
121.022900 	 -11.281290 
120.048100 	 -11.308960 
119.028000 	 -11.344460 
118.032300 	 -11.382240 
117.056400 	 -11.415630 
116.031300 	 -11.454350 
115.039000 	 -11.478500 
114.040600 	 -11.491700 
113.036400 	 -11.509730 
112.054200 	 -11.511030 
111.075600 	 -11.511940 
110.070200 	 -11.517640 
109.064800 	 -11.509550 
108.062700 	 -11.507090 
107.065500 	 -11.507770 
106.055000 	 -11.505370 
105.046400 	 -11.501650 
104.039100 	 -11.488630 
103.026700 	 -11.469420 
102.044300 	 -11.440130 
101.073800 	 -11.406250 
100.096700 	 -11.387260 
99.097050 	 -11.366060 
98.093700 	 -11.347820 
97.067570 	 -11.341080 
96.040010 	 -11.317730 
95.040270 	 -11.288060 
94.036090 	 -11.260590 
93.037220 	 -11.221000 
92.041530 	 -11.178330 
91.051760 	 -11.135720 
90.053790 	 -11.088990 
89.072320 	 -11.042090 
88.083080 	 -10.996490 
87.093750 	 -10.962060 
86.070490 	 -10.925260 
85.050250 	 -10.882910 
84.015340 	 -10.845160 
82.984400 	 -10.793490 
82.012830 	 -10.734940 
81.007980 	 -10.686450 
80.051830 	 -10.633180 
79.072330 	 -10.580030 
78.066300 	 -10.533720 
77.066480 	 -10.484760 
76.050090 	 -10.435360 
75.050950 	 -10.384300 
74.037630 	 -10.335510 
73.030840 	 -10.285850 
72.037600 	 -10.225280 
71.030170 	 -10.172430 
70.030410 	 -10.116950 
69.047370 	 -10.054540 
68.031200 	 -10.001580 
67.013080 	 -9.947535 
66.003620 	 -9.890883 
65.006900 	 -9.838543 
64.005710 	 -9.783464 
63.020750 	 -9.723401 
62.029640 	 -9.665087 
61.020940 	 -9.606356 
60.015400 	 -9.554317 
59.002480 	 -9.500994 
58.005430 	 -9.444141 
57.001210 	 -9.388206 
56.020160 	 -9.322527 
55.018870 	 -9.261286 
54.023830 	 -9.199121 
53.043390 	 -9.132600 
52.048090 	 -9.080283 
51.060150 	 -9.019295 
50.076860 	 -8.958912 
49.081370 	 -8.905039 
48.095400 	 -8.841203 
47.118720 	 -8.779963 
46.101210 	 -8.723240 
45.071030 	 -8.662456 
44.052930 	 -8.601137 
43.043330 	 -8.541922 
42.060280 	 -8.483918 
41.055760 	 -8.425022 
40.045020 	 -8.363523 
39.038850 	 -8.302734 
38.020440 	 -8.237220 
37.051690 	 -8.165943 
36.071390 	 -8.102058 
35.049030 	 -8.035267 
34.065760 	 -7.967737 
33.067670 	 -7.907649 
32.065460 	 -7.841562 
31.078990 	 -7.775257 
30.075580 	 -7.710107 
29.075250 	 -7.642252 
28.074690 	 -7.576699 
27.084100 	 -7.508398 
26.085510 	 -7.442278 
25.075920 	 -7.376196 
24.093810 	 -7.307559 
23.095810 	 -7.245716 
22.087370 	 -7.185925 
21.100470 	 -7.122688 
20.068930 	 -7.065163 
19.087740 	 -7.002007 
18.095630 	 -6.934387 
17.091580 	 -6.871041 
16.114890 	 -6.803030 
15.106200 	 -6.738787 
14.110570 	 -6.676670 
13.098810 	 -6.615304 
12.088380 	 -6.557221 
11.088200 	 -6.499001 
10.091170 	 -6.441690 
9.090543 	 -6.386538 
8.102529 	 -6.328278 
7.114400 	 -6.271517 
6.107169 	 -6.215987 
5.147603 	 -6.157838 
4.143987 	 -6.107889 
3.136046 	 -6.056396 
2.154966 	 -6.006875 
1.122127 	 -5.961758 
0.124918 	 -5.909850 
-0.876238 	 -5.860575 
-1.859299 	 -5.803644 
-2.810593 	 -5.750716 
-3.789063 	 -5.704068 
-4.763721 	 -5.658405 
-5.759609 	 -5.620998 
-6.753137 	 -5.581608 
-7.754540 	 -5.540725 
-8.762482 	 -5.502802 
-9.778216 	 -5.464703 
-10.795870 	 -5.423672 
-11.786650 	 -5.389113 
-12.768160 	 -5.349319 
-13.749030 	 -5.310980 
-14.744350 	 -5.281927 
-15.754100 	 -5.246676 
-16.775820 	 -5.216678 
-17.816320 	 -5.189560 
-18.814820 	 -5.155670 
-19.818270 	 -5.123590 
-20.797550 	 -5.092011 
-21.778200 	 -5.059526 
-22.788310 	 -5.027310 
-23.759350 	 -4.994342 
-24.758190 	 -4.965525 
-25.734320 	 -4.935917 
-26.717360 	 -4.906477 
-27.720050 	 -4.888725 
-28.737620 	 -4.865527 
-29.750880 	 -4.843121 
-30.781680 	 -4.825971 
-31.804440 	 -4.799846 
-32.792330 	 -4.773439 
-33.792830 	 -4.752076 
-34.782740 	 -4.728817 
-35.782990 	 -4.707802 
-36.764780 	 -4.689761 
-37.758370 	 -4.672576 
-38.748280 	 -4.656182 
-39.732890 	 -4.637545 
-40.767860 	 -4.622856 
-41.779290 	 -4.603600 
-42.749980 	 -4.580199 
-43.755530 	 -4.566115 
-44.749770 	 -4.548529 
-45.724690 	 -4.532132 
-46.755650 	 -4.525286 
-47.746110 	 -4.513178 
-48.742780 	 -4.501645 
-49.757530 	 -4.491735 
-50.741080 	 -4.478166 
-51.748430 	 -4.463981 
-52.730960 	 -4.450749 
-53.722640 	 -4.440188 
-54.730630 	 -4.432248 
-55.721950 	 -4.421520 
-56.734780 	 -4.416248 
-57.741150 	 -4.410615 
-58.741150 	 -4.400646 
-59.752670 	 -4.398063 
-60.761130 	 -4.390256 
-61.774610 	 -4.380287 
-62.777840 	 -4.373943 
-63.772880 	 -4.365728 
-64.749540 	 -4.359952 
-65.741470 	 -4.360555 
-66.749040 	 -4.361426 
-67.779060 	 -4.365127 
-68.814210 	 -4.366512 
-69.814210 	 -4.364677 
-70.816180 	 -4.364651 
-71.789290 	 -4.359667 
-72.788410 	 -4.359008 
-73.796250 	 -4.358177 
-74.791260 	 -4.353772 
-75.796370 	 -4.355875 
-76.763670 	 -4.357591 
-77.752200 	 -4.361498 
-78.750180 	 -4.370264 
-79.747810 	 -4.376066 
-80.752270 	 -4.380048 
-81.757490 	 -4.383223 
-82.764030 	 -4.385975 
-83.781970 	 -4.390595 
-84.814340 	 -4.400442 
-85.832370 	 -4.407760 
-86.844770 	 -4.419696 
-87.825550 	 -4.427582 
-88.797850 	 -4.439075 
-89.779940 	 -4.448923 
-90.755870 	 -4.454710 
-91.765110 	 -4.468370 
-92.784970 	 -4.474810 
-93.780820 	 -4.487608 
-94.794040 	 -4.502044 
-95.796860 	 -4.509518 
-96.755330 	 -4.519524 
-97.758990 	 -4.533274 
-98.755450 	 -4.546375 
-99.731740 	 -4.561078 
-100.758400 	 -4.577568 
-101.748300 	 -4.592037 
-102.732900 	 -4.605792 
-103.718600 	 -4.624044 
-104.715600 	 -4.647882 
-105.732800 	 -4.669658 
-106.751600 	 -4.692757 
-107.779300 	 -4.719590 
-108.801500 	 -4.741992 
-109.795400 	 -4.764080 
-110.792600 	 -4.792431 
-111.804600 	 -4.815890 
-112.786400 	 -4.838017 
-113.779900 	 -4.863603 
-114.770700 	 -4.884742 
-115.760400 	 -4.908993 
-116.760600 	 -4.937346 
-117.773800 	 -4.971448 
-118.803400 	 -5.007342 
-119.822700 	 -5.040360 
-120.837100 	 -5.077395 
-121.858900 	 -5.109490 
-122.846500 	 -5.140112 
-123.824500 	 -5.178447 
-124.814900 	 -5.215626 
-125.792400 	 -5.252867 
-126.780600 	 -5.296287 
-127.771400 	 -5.336805 
-128.757400 	 -5.378011 
-129.735800 	 -5.424266 
-130.736500 	 -5.469607 
-131.751400 	 -5.518858 
-132.761500 	 -5.564080 
-133.771300 	 -5.608162 
-134.776800 	 -5.654870 
-135.766100 	 -5.698879 
-136.769800 	 -5.750986 
-137.803900 	 -5.804839 
-138.803100 	 -5.857623 
-139.829700 	 -5.914948 
-140.826800 	 -5.969020 
-141.795200 	 -6.021359 
-142.807100 	 -6.079658 
-143.795000 	 -6.131023 
-144.806800 	 -6.186437 
-145.804200 	 -6.244989 
-146.792700 	 -6.299199 
-147.765000 	 -6.359680 
-148.745500 	 -6.424218 
-149.765400 	 -6.488563 
-150.763200 	 -6.554276 
-151.781000 	 -6.617680 
-152.773300 	 -6.676738 
-153.769200 	 -6.733597 
-154.741100 	 -6.789901 
-155.726100 	 -6.858204 
-156.747200 	 -6.933251 
-157.738700 	 -7.010613 
-158.766400 	 -7.092024 
-159.782100 	 -7.165186 
-160.775900 	 -7.234453 
-161.770900 	 -7.309003 
-162.754300 	 -7.383430 
-163.763700 	 -7.456246 
-164.776000 	 -7.530571 
-165.765100 	 -7.604672 
-166.774100 	 -7.678520 
-167.762900 	 -7.756213 
-168.752700 	 -7.842712 
-169.779500 	 -7.928480 
-170.789300 	 -8.008253 
-171.802300 	 -8.093084 
-172.806300 	 -8.164088 
-173.777800 	 -8.228154 
-174.778200 	 -8.302351 
-175.756000 	 -8.370286 
-176.747800 	 -8.438839 
-177.751600 	 -8.511387 
-178.748000 	 -8.579045 
-179.744300 	 -8.641460 
-180.733300 	 -8.703156 
-181.741100 	 -8.765744 
-182.755200 	 -8.825136 
-183.775200 	 -8.876052 
-184.765200 	 -8.930719 
-185.752800 	 -8.982316 
-186.722200 	 -9.027142 
-187.720600 	 -9.090017 
-188.738900 	 -9.153625 
-189.742000 	 -9.212496 
-190.742400 	 -9.276570 
-191.739900 	 -9.331857 
-192.729800 	 -9.379744 
-193.716400 	 -9.433336 
-194.710700 	 -9.489906 
-195.709700 	 -9.552360 
-196.717400 	 -9.618076 
-197.731400 	 -9.686283 
-198.763000 	 -9.761001 
-199.751300 	 -9.828823 
-200.736100 	 -9.903564 
-201.728700 	 -9.979176 
-202.699100 	 -10.041500 
-203.687800 	 -10.108770 
-204.671800 	 -10.171220 
-205.658700 	 -10.231170 
-206.656500 	 -10.305640 
-207.659200 	 -10.387250 
-208.673300 	 -10.479170 
-209.692000 	 -10.576000 
-210.704000 	 -10.664320 
-211.751100 	 -10.753470 
-212.773700 	 -10.835460 
-213.759900 	 -10.915350 
-214.748700 	 -11.003100 
-215.719100 	 -11.084950 
-216.718900 	 -11.171020 
-217.737100 	 -11.260330 
-218.744700 	 -11.350280 
-219.757300 	 -11.454440 
-220.758200 	 -11.557080 
-221.756800 	 -11.659330 
-222.769400 	 -11.761170 
-223.758200 	 -11.842040 
-224.751600 	 -11.921510 
-225.755700 	 -12.006640 
-226.744000 	 -12.088310 
-227.734700 	 -12.186580 
-228.721800 	 -12.291560 
-229.740500 	 -12.392960 
-230.726400 	 -12.497470 
-231.733200 	 -12.595940 
-232.739800 	 -12.697240 
-233.736800 	 -12.798570 
-234.751700 	 -12.895740 
-235.768100 	 -13.001350 
-236.782300 	 -13.098610 
-237.753900 	 -13.191010 
-238.760300 	 -13.299240 
-239.752200 	 -13.402830 
-240.752700 	 -13.505290 
-241.772900 	 -13.613990 
-242.769700 	 -13.703990 
-243.776700 	 -13.792060 
-244.766300 	 -13.880310 
-245.756100 	 -13.975690 
-246.773000 	 -14.082830 
-247.762100 	 -14.189660 
-248.771100 	 -14.300500 
-249.783700 	 -14.402740 
-250.770900 	 -14.487500 
-251.774500 	 -14.583000 
-252.775200 	 -14.672450 
-253.746900 	 -14.742950 
-254.754300 	 -14.825920 
-255.733000 	 -14.897020 
-256.701700 	 -14.965840 
-257.705700 	 -15.058500 
-258.682300 	 -15.160070 
-259.714800 	 -15.271780 
-260.732800 	 -15.385110 
-261.757600 	 -15.494450 
-262.782700 	 -15.588620 
-263.761700 	 -15.662430 
-264.763700 	 -15.739810 
-265.758900 	 -15.817020 
-266.732800 	 -15.886310 
-267.740200 	 -15.972660 
-268.745600 	 -16.057760 
-269.745900 	 -16.134970 
-270.760000 	 -16.229030 
-271.755500 	 -16.315100 
-272.741000 	 -16.396730 
-273.733900 	 -16.473970 
-274.747100 	 -16.532410 
-275.737200 	 -16.589350 
-276.753700 	 -16.643910 
-277.758900 	 -16.707230 
-278.746900 	 -16.783770 
-279.765100 	 -16.854010 
-280.750000 	 -16.924130 
-281.744400 	 -16.985090 
-282.726300 	 -17.023930 
-283.717300 	 -17.070670 
-284.727300 	 -17.114210 
-285.731400 	 -17.158160 
-286.757900 	 -17.217470 
-287.744900 	 -17.266520 
-288.741600 	 -17.318030 
-289.728300 	 -17.373730 
-290.709800 	 -17.422130 
-291.724700 	 -17.471080 
-292.720300 	 -17.509190 
-293.735200 	 -17.533300 
-294.745500 	 -17.549380 
-295.728700 	 -17.559690 
-296.714800 	 -17.578930 
-297.709100 	 -17.605760 
-298.707300 	 -17.634660 
-299.707300 	 -17.674070 
-300.722900 	 -17.699380 
-301.724700 	 -17.710870 
-302.707500 	 -17.726780 
-303.704100 	 -17.722940 
-304.691900 	 -17.719520 
-305.675300 	 -17.719330 
-306.694000 	 -17.708460 
-307.688800 	 -17.701260 
-308.682000 	 -17.700340 
-309.691800 	 -17.707900 
-310.683900 	 -17.718440 
-311.701000 	 -17.722890 
-312.710400 	 -17.720760 
-313.712400 	 -17.700020 
-314.700900 	 -17.662720 
-315.692700 	 -17.637640 
-316.716800 	 -17.606490 
-317.707700 	 -17.576330 
-318.714800 	 -17.563060 
-319.731400 	 -17.533200 
-320.712500 	 -17.495650 
-321.712300 	 -17.463590 
-322.727900 	 -17.421290 
-323.722800 	 -17.376120 
-324.726100 	 -17.329670 
-325.746000 	 -17.276560 
-326.744200 	 -17.220680 
-327.738400 	 -17.159390 
-328.748700 	 -17.111250 
-329.761400 	 -17.061120 
-330.746600 	 -16.998950 
-331.760700 	 -16.944780 
-332.775100 	 -16.873070 
-333.734000 	 -16.784030 
-334.738900 	 -16.708210 
-335.710900 	 -16.626470 
-336.679400 	 -16.546780 
-337.708600 	 -16.479010 
-338.707500 	 -16.406980 
-339.731600 	 -16.331850 
-340.735400 	 -16.252350 
-341.735400 	 -16.172210 
-342.742300 	 -16.088200 
-343.729900 	 -15.992090 
-344.748300 	 -15.897480 
-345.743200 	 -15.798480 
-346.737000 	 -15.691790 
-347.744800 	 -15.601520 
-348.722800 	 -15.513550 
-349.710100 	 -15.422340 
-350.711600 	 -15.335460 
-351.695300 	 -15.236090 
-352.705900 	 -15.127610 
-353.702500 	 -15.015430 
-354.699000 	 -14.902110 
-355.709500 	 -14.790040 
-356.705600 	 -14.677870 
-357.703800 	 -14.569580 
-358.697700 	 -14.461770 
-359.681800 	 -14.349970 
-360.680100 	 -14.245260 
-361.681300 	 -14.141070 
-362.669800 	 -14.030860 
-363.678200 	 -13.924310 
-364.673000 	 -13.809390 
-365.668500 	 -13.690980 
-366.686400 	 -13.579680 
-367.691000 	 -13.466450 
-368.704300 	 -13.358620 
-369.727700 	 -13.252160 
-370.738500 	 -13.140310 
-371.732000 	 -13.027010 
-372.717900 	 -12.911190 
-373.697400 	 -12.792800 
-374.689800 	 -12.679030 
-375.689200 	 -12.563390 
-376.681400 	 -12.449630 
-377.697700 	 -12.338320 
-378.700400 	 -12.224750 
-379.713400 	 -12.118670 
-380.737900 	 -12.009730 
-381.742700 	 -11.900590 
-382.734300 	 -11.794000 
-383.712800 	 -11.681190 
-384.695900 	 -11.569740 
-385.689200 	 -11.461000 
-386.679400 	 -11.353610 
-387.685500 	 -11.249160 
-388.686000 	 -11.147730 
-389.679900 	 -11.046210 
-390.698200 	 -10.944050 
-391.704500 	 -10.841100 
-392.705700 	 -10.739230 
-393.712000 	 -10.636310 
-394.674400 	 -10.534100 
-395.696500 	 -10.436820 
-396.693500 	 -10.335640 
-397.674400 	 -10.236330 
-398.696800 	 -10.144810 
-399.693700 	 -10.049290 
-400.703400 	 -9.958505 
-401.716300 	 -9.870023 
-402.721200 	 -9.776096 
-403.697000 	 -9.685184 
-404.683700 	 -9.595867 
-405.679000 	 -9.505053 
-406.679100 	 -9.417485 
-407.673000 	 -9.330192 
-408.691500 	 -9.244880 
-409.679000 	 -9.164365 
-410.663400 	 -9.081211 
-411.656600 	 -9.003302 
-412.627400 	 -8.923730 
-413.644300 	 -8.844095 
-414.637300 	 -8.769441 
-415.645100 	 -8.693162 
-416.653300 	 -8.618935 
-417.637800 	 -8.547731 
-418.668900 	 -8.478013 
-419.679900 	 -8.408965 
-420.677700 	 -8.340755 
-421.693800 	 -8.272007 
-422.692600 	 -8.203241 
-423.684600 	 -8.133882 
-424.681200 	 -8.067463 
-425.666600 	 -8.001938 
-426.638400 	 -7.936524 
-427.641400 	 -7.875654 
-428.639800 	 -7.815306 
-429.643600 	 -7.755702 
-430.668900 	 -7.698667 
-431.668700 	 -7.639386 
-432.695900 	 -7.580254 
-433.721300 	 -7.522638 
-434.713100 	 -7.466973 
-435.709400 	 -7.414278 
-436.686900 	 -7.363361 
-437.665200 	 -7.314472 
-438.677100 	 -7.265998 
-439.678900 	 -7.217262 
-440.696700 	 -7.170132 
-441.698700 	 -7.122219 
-442.690200 	 -7.073939 
-443.701000 	 -7.027059 
-444.705800 	 -6.979568 
-445.694100 	 -6.934055 
-446.700700 	 -6.891124 
-447.690800 	 -6.848403 
-448.671300 	 -6.808580 
-449.685800 	 -6.768644 
-450.679100 	 -6.727746 
-451.686800 	 -6.689061 
-452.691400 	 -6.649498 
-453.675600 	 -6.612398 
-454.672100 	 -6.578287 
-455.658800 	 -6.544538 
-456.660100 	 -6.513016 
-457.676100 	 -6.480377 
-458.663600 	 -6.446566 
-459.674700 	 -6.414362 
-460.665200 	 -6.380332 
-461.640300 	 -6.347044 
-462.636500 	 -6.317226 
-463.637500 	 -6.285413 
-464.639800 	 -6.255332 
-465.656900 	 -6.226180 
-466.658600 	 -6.195856 
-467.651100 	 -6.167453 
-468.649300 	 -6.139822 
-469.645000 	 -6.112459 
-470.652200 	 -6.085749 
-471.672300 	 -6.059371 
-472.674900 	 -6.034247 
-473.694200 	 -6.010389 
-474.690900 	 -5.986518 
-475.688700 	 -5.965108 
-476.692400 	 -5.943392 
-477.680900 	 -5.921506 
-478.708300 	 -5.902077 
-479.692300 	 -5.880610 
-480.714600 	 -5.859392 
-481.723800 	 -5.840143 
-482.727800 	 -5.819390 
-483.733700 	 -5.799114 
-484.704500 	 -5.779112 
-485.690800 	 -5.759791 
-486.661900 	 -5.740398 
-487.646800 	 -5.722489 
-488.653000 	 -5.706987 
-489.661300 	 -5.689997 
-490.680900 	 -5.674346 
-491.703200 	 -5.660106 
-492.698700 	 -5.645598 
-493.688900 	 -5.631054 
-494.672400 	 -5.618862 
-495.669900 	 -5.605050 
-496.680400 	 -5.591214 
-497.674000 	 -5.578898 
-498.678600 	 -5.565817 
-499.665300 	 -5.553615 
-500.664600 	 -5.541135 
-501.666900 	 -5.530529 
-502.681000 	 -5.518457 
-503.693800 	 -5.505673 
-504.681600 	 -5.494236 
-505.680100 	 -5.482096 
-506.644700 	 -5.469803 
-507.631000 	 -5.462042 
-508.635800 	 -5.452305 
-509.638100 	 -5.442351 
-510.657200 	 -5.435217 
-511.643800 	 -5.425177 
-512.635100 	 -5.417876 
-513.618800 	 -5.410805 
-514.617800 	 -5.403260 
-515.629500 	 -5.395965 
-516.619800 	 -5.388713 
-517.662300 	 -5.381384 
-518.660200 	 -5.375365 
-519.672400 	 -5.369077 
-520.695100 	 -5.363516 
-521.681600 	 -5.358703 
-522.664000 	 -5.350552 
-523.654200 	 -5.343800 
-524.638500 	 -5.336447 
-525.624300 	 -5.329387 
-526.644500 	 -5.325710 
-527.642800 	 -5.321787 
-528.660000 	 -5.318386 
-529.656400 	 -5.314801 
-530.656400 	 -5.310524 
-531.691800 	 -5.306829 
-532.688800 	 -5.302530 
-533.705700 	 -5.298249 
-534.708500 	 -5.293656 
-535.668400 	 -5.287519 
-536.651100 	 -5.283595 
-537.638900 	 -5.278970 
-538.628000 	 -5.275009 
-539.645300 	 -5.273312 
-540.671100 	 -5.270276 
-541.685300 	 -5.268414 
-542.702900 	 -5.265680 
-543.699900 	 -5.263126 
-544.692600 	 -5.258687 
-545.669700 	 -5.255935 
-546.671800 	 -5.253690 
-547.666400 	 -5.252603 
-548.685700 	 -5.253229 
-549.709400 	 -5.253020 
-550.727500 	 -5.252688 
-551.727100 	 -5.250901 
-552.728100 	 -5.249811 
-553.720800 	 -5.248134 
-554.682500 	 -5.246165 
-555.695600 	 -5.244098 
-556.690600 	 -5.240396 
-557.682300 	 -5.236776 
-558.702400 	 -5.239142 
-559.689800 	 -5.239490 
-560.662600 	 -5.242331 
-561.660300 	 -5.246579 
-562.642000 	 -5.245107 
-563.629400 	 -5.245069 
-564.621500 	 -5.243903 
-565.613500 	 -5.243151 
-566.609500 	 -5.244323 
-567.625300 	 -5.246416 
-568.632000 	 -5.248048 
-569.637900 	 -5.248900 
-570.637800 	 -5.248158 
-571.651900 	 -5.248417 
-572.666900 	 -5.248901 
-573.678000 	 -5.249807 
-574.689300 	 -5.251238 
-575.677400 	 -5.251424 
-576.652900 	 -5.251662 
-577.643100 	 -5.250726 
-578.644800 	 -5.249335 
-579.627300 	 -5.249109 
-580.641400 	 -5.249438 
-581.645600 	 -5.250845 
-582.663500 	 -5.253482 
-583.668400 	 -5.255413 
-584.662000 	 -5.258129 
-585.667000 	 -5.260397 
-586.627500 	 -5.262331 
-587.634900 	 -5.264869 
-588.627700 	 -5.265173 
-589.609700 	 -5.265353 
-590.620000 	 -5.265729 
-591.602700 	 -5.265307 
-592.613500 	 -5.266438 
-593.647100 	 -5.269135 
-594.660800 	 -5.271131 
-595.668600 	 -5.273093 
-596.651200 	 -5.273883 
-597.632400 	 -5.273375 
