WE1 Volts(mV)    WE1 Idir (uA) 
-100.343100 	 -0.955426 
-100.141400 	 -0.937951 
-99.672400 	 -0.910865 
-98.966780 	 -0.877555 
-98.005830 	 -0.839315 
-96.999540 	 -0.808229 
-96.011740 	 -0.784688 
-94.987050 	 -0.759522 
-93.954430 	 -0.734123 
-92.945650 	 -0.713056 
-91.925960 	 -0.688550 
-90.936300 	 -0.668546 
-89.961550 	 -0.652637 
-88.964780 	 -0.641008 
-87.968580 	 -0.627200 
-86.971660 	 -0.610517 
-85.965770 	 -0.589900 
-84.944760 	 -0.570680 
-83.938510 	 -0.552871 
-82.947330 	 -0.540042 
-81.941250 	 -0.525582 
-80.953080 	 -0.508110 
-79.964140 	 -0.495242 
-78.955440 	 -0.480334 
-77.941970 	 -0.469252 
-76.948090 	 -0.456610 
-75.952380 	 -0.445295 
-74.951650 	 -0.433386 
-74.005840 	 -0.421357 
-73.014500 	 -0.412532 
-72.023540 	 -0.395559 
-71.049900 	 -0.379153 
-70.018070 	 -0.362364 
-69.001050 	 -0.349681 
-67.987270 	 -0.339691 
-66.942440 	 -0.328598 
-65.962430 	 -0.316824 
-64.975500 	 -0.300832 
-63.976270 	 -0.287949 
-63.005570 	 -0.278413 
-61.990950 	 -0.268066 
-60.995490 	 -0.260077 
-60.014370 	 -0.252254 
-59.003890 	 -0.242260 
-57.999090 	 -0.235725 
-56.993450 	 -0.222806 
-55.973090 	 -0.210365 
-54.964900 	 -0.200745 
-53.961020 	 -0.183577 
-52.962470 	 -0.175744 
-51.975960 	 -0.167720 
-50.991840 	 -0.156846 
-50.003150 	 -0.150860 
-48.983640 	 -0.138490 
-47.971270 	 -0.129672 
-46.980110 	 -0.121836 
-45.978750 	 -0.117641 
-45.016740 	 -0.112158 
-44.027040 	 -0.103956 
-42.996470 	 -0.096234 
-41.974430 	 -0.086875 
-40.964160 	 -0.080244 
-39.971820 	 -0.078624 
-38.983850 	 -0.072511 
-37.998870 	 -0.065918 
-36.975090 	 -0.060425 
-35.953900 	 -0.048655 
-34.960820 	 -0.042497 
-33.965240 	 -0.036686 
-32.975020 	 -0.033574 
-31.972020 	 -0.028496 
-30.962650 	 -0.021609 
-29.929730 	 -0.018682 
-28.932940 	 -0.011017 
-27.935760 	 -0.007768 
-26.945800 	 -0.002607 
-25.971720 	 0.005942 
-24.973240 	 0.011733 
-23.970560 	 0.019579 
-22.954960 	 0.020900 
-21.965360 	 0.023686 
-20.967620 	 0.026512 
-19.977760 	 0.026294 
-18.992540 	 0.025942 
-17.977790 	 0.031503 
-16.968400 	 0.040782 
-15.961860 	 0.048308 
-14.975430 	 0.057347 
-13.974970 	 0.060150 
-12.963020 	 0.060167 
-11.973580 	 0.063149 
-10.942970 	 0.065061 
-9.934916 	 0.066201 
-8.957469 	 0.067348 
-7.947563 	 0.069062 
-6.944575 	 0.076501 
-5.948834 	 0.082741 
-4.924647 	 0.088040 
-3.945631 	 0.090409 
-2.979032 	 0.090768 
-2.019169 	 0.088933 
-1.064044 	 0.087385 
-0.070945 	 0.089068 
0.916705 	 0.088196 
1.918604 	 0.092361 
2.918307 	 0.099038 
3.918983 	 0.103013 
4.917663 	 0.111440 
5.910514 	 0.112994 
6.903546 	 0.113802 
7.887102 	 0.116202 
8.898082 	 0.114411 
9.895094 	 0.114331 
10.879180 	 0.113214 
11.873030 	 0.115271 
12.827020 	 0.119408 
13.819710 	 0.126804 
14.841270 	 0.131791 
15.868580 	 0.133972 
16.904920 	 0.132457 
17.923180 	 0.132160 
18.914760 	 0.131858 
19.883830 	 0.133832 
20.875500 	 0.138251 
21.851090 	 0.139749 
22.852510 	 0.143513 
23.873880 	 0.144082 
24.873730 	 0.143206 
25.879160 	 0.144894 
26.879700 	 0.148916 
27.858620 	 0.152208 
28.837360 	 0.154115 
29.831960 	 0.158382 
30.820810 	 0.159907 
31.817630 	 0.161868 
32.834350 	 0.166954 
33.846950 	 0.169031 
34.856640 	 0.167088 
35.863690 	 0.166980 
36.859300 	 0.165658 
37.831950 	 0.162948 
38.824740 	 0.166435 
39.823830 	 0.172884 
40.824170 	 0.175933 
41.842210 	 0.174748 
42.833540 	 0.172249 
43.842030 	 0.167706 
44.848470 	 0.165277 
45.866510 	 0.168180 
46.894500 	 0.171118 
47.881940 	 0.173660 
48.878330 	 0.176625 
49.867670 	 0.178803 
50.829510 	 0.182231 
51.826890 	 0.184849 
52.825370 	 0.187209 
53.810790 	 0.191299 
54.818850 	 0.195443 
55.812860 	 0.198321 
56.794660 	 0.201536 
57.790860 	 0.204301 
58.786470 	 0.202684 
59.783530 	 0.201907 
60.783180 	 0.202425 
61.782460 	 0.201455 
62.801360 	 0.203818 
63.821740 	 0.208551 
64.849370 	 0.211202 
65.854840 	 0.214933 
66.849270 	 0.217316 
67.822330 	 0.223546 
68.803560 	 0.221935 
69.798420 	 0.217746 
70.781600 	 0.221072 
71.797830 	 0.223805 
72.808930 	 0.235124 
73.820420 	 0.244845 
74.817400 	 0.247329 
75.827440 	 0.250315 
76.826530 	 0.247595 
77.801300 	 0.247087 
78.806790 	 0.245415 
79.778310 	 0.239301 
80.758340 	 0.246226 
81.775540 	 0.253682 
82.762880 	 0.263236 
83.770320 	 0.268795 
84.790450 	 0.270798 
85.789080 	 0.275254 
86.803330 	 0.267820 
87.789310 	 0.265628 
88.768550 	 0.263264 
89.749050 	 0.261130 
90.746280 	 0.268002 
91.761120 	 0.276457 
92.765350 	 0.282319 
93.785930 	 0.278641 
94.786180 	 0.280219 
95.797610 	 0.280041 
96.818600 	 0.283956 
97.831640 	 0.297418 
98.831020 	 0.305751 
99.836930 	 0.310271 
100.820500 	 0.312501 
101.787200 	 0.312275 
102.777800 	 0.315573 
103.771500 	 0.321681 
104.753500 	 0.326054 
105.767900 	 0.329753 
106.772400 	 0.331585 
107.746200 	 0.330612 
108.759000 	 0.333908 
109.753300 	 0.338893 
110.774000 	 0.344210 
111.787300 	 0.353742 
112.799700 	 0.360773 
113.815900 	 0.366539 
114.795300 	 0.371421 
115.792600 	 0.373333 
116.784800 	 0.376972 
117.774600 	 0.380516 
118.777500 	 0.387655 
119.768200 	 0.395613 
120.768900 	 0.400469 
121.767600 	 0.405682 
122.774200 	 0.408752 
123.812800 	 0.410398 
124.810500 	 0.412768 
125.818400 	 0.415551 
126.821900 	 0.417497 
127.773800 	 0.418959 
128.756900 	 0.421784 
129.767800 	 0.426998 
130.754100 	 0.432729 
131.770900 	 0.439702 
132.766200 	 0.444836 
133.740600 	 0.448649 
134.729700 	 0.454150 
135.724200 	 0.460418 
136.751500 	 0.467989 
137.756600 	 0.473299 
138.753200 	 0.474469 
139.743000 	 0.474988 
140.715700 	 0.477240 
141.709300 	 0.481152 
142.721100 	 0.485412 
143.747500 	 0.492761 
144.773100 	 0.496400 
145.790500 	 0.503620 
146.801300 	 0.509583 
147.795900 	 0.511261 
148.773300 	 0.516249 
149.777400 	 0.520893 
150.767400 	 0.528290 
151.760700 	 0.535260 
152.769700 	 0.541084 
153.761900 	 0.542003 
154.759100 	 0.543663 
155.790600 	 0.547957 
156.808500 	 0.551875 
157.789200 	 0.558438 
158.786600 	 0.563653 
159.734300 	 0.568528 
160.707800 	 0.573229 
161.717200 	 0.577505 
162.751600 	 0.581247 
163.786000 	 0.584275 
164.790900 	 0.587841 
165.768100 	 0.589292 
166.731400 	 0.592464 
167.729600 	 0.596061 
168.727600 	 0.598080 
169.755600 	 0.600335 
170.760900 	 0.601151 
171.746600 	 0.598773 
172.753400 	 0.600300 
173.755000 	 0.600955 
174.766600 	 0.605608 
175.764800 	 0.609827 
176.769100 	 0.610916 
177.749700 	 0.614454 
178.740000 	 0.612260 
179.722500 	 0.613475 
180.730400 	 0.614666 
181.721200 	 0.613523 
182.709400 	 0.615938 
183.739300 	 0.617256 
184.714400 	 0.615123 
185.747500 	 0.616618 
186.768500 	 0.617818 
187.752600 	 0.619373 
188.755000 	 0.620731 
189.734900 	 0.621496 
190.721900 	 0.622350 
191.710900 	 0.623101 
192.722400 	 0.627018 
193.751400 	 0.630330 
194.757900 	 0.628440 
195.765800 	 0.626370 
196.767100 	 0.626010 
197.757400 	 0.622822 
198.774500 	 0.624006 
199.794200 	 0.624779 
200.810500 	 0.623623 
201.802100 	 0.624457 
202.779900 	 0.623668 
203.773300 	 0.622996 
204.752900 	 0.624011 
205.740800 	 0.620677 
206.756200 	 0.622456 
207.755600 	 0.625147 
208.743000 	 0.622811 
209.742800 	 0.625037 
210.715600 	 0.623525 
211.720700 	 0.623550 
212.738400 	 0.625424 
213.726900 	 0.627406 
214.719600 	 0.629054 
215.723000 	 0.628587 
216.710000 	 0.628511 
217.715100 	 0.628115 
218.726900 	 0.628445 
219.727600 	 0.631500 
220.707500 	 0.632777 
221.724500 	 0.631845 
222.729500 	 0.633298 
223.710600 	 0.626842 
224.734500 	 0.624707 
225.755100 	 0.625418 
226.759200 	 0.617626 
227.761900 	 0.622129 
228.760700 	 0.626170 
229.722400 	 0.622059 
230.717500 	 0.628679 
231.716900 	 0.625851 
232.705200 	 0.620941 
233.723800 	 0.626701 
234.713700 	 0.633841 
235.717900 	 0.632311 
236.728100 	 0.631950 
237.698400 	 0.628721 
238.699600 	 0.616771 
239.682900 	 0.615113 
240.662500 	 0.616146 
241.675600 	 0.615527 
242.670800 	 0.620430 
243.688200 	 0.633482 
244.707200 	 0.634217 
245.712600 	 0.639281 
246.699400 	 0.642258 
247.678200 	 0.631408 
248.663600 	 0.626086 
249.655700 	 0.624837 
250.680100 	 0.629867 
251.707700 	 0.649070 
252.718900 	 0.658688 
253.709800 	 0.672956 
254.725300 	 0.670082 
255.706700 	 0.660631 
256.689400 	 0.665478 
257.713300 	 0.656024 
258.682800 	 0.648357 
259.682500 	 0.653805 
260.692400 	 0.657305 
261.669200 	 0.657865 
262.683800 	 0.667808 
263.694100 	 0.674510 
264.714500 	 0.673658 
265.709300 	 0.686778 
266.704200 	 0.700807 
267.691900 	 0.698485 
268.675500 	 0.709754 
269.684900 	 0.704558 
270.693600 	 0.696636 
271.700700 	 0.699375 
272.705700 	 0.691972 
273.707900 	 0.686780 
274.695500 	 0.678925 
275.700000 	 0.669129 
276.725600 	 0.672300 
277.731900 	 0.677885 
278.738700 	 0.684859 
279.728100 	 0.697258 
280.692900 	 0.691193 
281.688400 	 0.688132 
282.673000 	 0.694023 
283.667200 	 0.691112 
284.674700 	 0.701281 
285.675400 	 0.712825 
286.697400 	 0.721976 
287.699900 	 0.727530 
288.680000 	 0.735858 
289.667100 	 0.736330 
290.634300 	 0.733484 
291.625100 	 0.751327 
292.648400 	 0.768316 
293.652300 	 0.784023 
294.665200 	 0.809693 
295.685100 	 0.821779 
296.686200 	 0.815508 
297.693300 	 0.817232 
298.688500 	 0.808176 
299.682100 	 0.798830 
300.678400 	 0.803611 
301.681900 	 0.806406 
302.694500 	 0.825596 
303.702800 	 0.835982 
304.708300 	 0.831916 
305.733500 	 0.828880 
306.735400 	 0.801357 
307.729700 	 0.792135 
308.722000 	 0.798810 
309.704700 	 0.810885 
310.692500 	 0.826726 
311.696700 	 0.836250 
312.691300 	 0.850540 
313.683700 	 0.855510 
314.694700 	 0.864299 
315.697100 	 0.870278 
316.705000 	 0.887290 
317.707300 	 0.907918 
318.715000 	 0.917789 
319.696600 	 0.922674 
320.677300 	 0.910099 
321.659800 	 0.893214 
322.646300 	 0.891175 
323.648200 	 0.889342 
324.672900 	 0.899414 
325.688700 	 0.920445 
326.684700 	 0.931991 
327.692900 	 0.934571 
328.702800 	 0.937622 
329.699800 	 0.939580 
330.706200 	 0.925945 
331.702200 	 0.939279 
332.650200 	 0.945308 
333.654700 	 0.949120 
334.642700 	 0.971216 
335.633800 	 0.949292 
336.646900 	 0.935109 
337.635000 	 0.926065 
338.629200 	 0.922762 
339.619800 	 0.948658 
340.627700 	 0.964599 
341.630600 	 0.980497 
342.654300 	 0.990391 
343.668500 	 1.003564 
344.655300 	 1.015489 
345.650300 	 1.020080 
346.634000 	 1.030732 
347.634000 	 1.035168 
348.656700 	 1.043643 
349.667400 	 1.054418 
350.669100 	 1.061927 
351.665000 	 1.066610 
352.682600 	 1.065884 
353.694000 	 1.067497 
354.703300 	 1.069031 
355.711300 	 1.079113 
356.700300 	 1.075233 
357.675600 	 1.065662 
358.663700 	 1.067769 
359.649500 	 1.060588 
360.638800 	 1.069335 
361.645200 	 1.079032 
362.655900 	 1.083231 
363.651900 	 1.089603 
364.642000 	 1.092652 
365.632100 	 1.099496 
366.641400 	 1.124600 
367.663600 	 1.147035 
368.662900 	 1.181420 
369.678000 	 1.214328 
370.653500 	 1.221606 
371.645000 	 1.227986 
372.664900 	 1.225393 
373.635700 	 1.226561 
374.642400 	 1.238023 
375.664300 	 1.265321 
376.635900 	 1.290189 
377.673300 	 1.303211 
378.676800 	 1.315838 
379.657000 	 1.328153 
380.663200 	 1.342755 
381.646500 	 1.370514 
382.666500 	 1.386668 
383.672000 	 1.396100 
384.684200 	 1.401342 
385.686400 	 1.408037 
386.656800 	 1.425842 
387.642700 	 1.441772 
388.615200 	 1.468486 
389.603000 	 1.483977 
390.614000 	 1.490954 
391.635500 	 1.501445 
392.658100 	 1.507895 
393.652600 	 1.523076 
394.645000 	 1.540470 
395.633400 	 1.555250 
396.618900 	 1.569433 
397.625000 	 1.586445 
398.156600 	 1.564006 
398.177000 	 1.519013 
397.726000 	 1.451802 
396.776700 	 1.363126 
395.789800 	 1.298958 
394.799600 	 1.242082 
393.814100 	 1.190313 
392.796900 	 1.137059 
391.797100 	 1.095297 
390.785900 	 1.055478 
389.777900 	 1.015399 
388.781700 	 0.983381 
387.772200 	 0.947123 
386.783100 	 0.912771 
385.762900 	 0.888786 
384.773200 	 0.866843 
383.816200 	 0.839534 
382.846700 	 0.818430 
381.876700 	 0.791878 
380.867600 	 0.763660 
379.837100 	 0.744210 
378.809300 	 0.721815 
377.792100 	 0.699111 
376.814600 	 0.677804 
375.822200 	 0.657173 
374.830800 	 0.641002 
373.850400 	 0.626096 
372.843800 	 0.608419 
371.840600 	 0.584015 
370.836400 	 0.559020 
369.830800 	 0.538272 
368.805500 	 0.523336 
367.793400 	 0.512397 
366.782500 	 0.501881 
365.778900 	 0.490065 
364.809500 	 0.475702 
363.807500 	 0.460560 
362.812900 	 0.447148 
361.812400 	 0.432183 
360.810300 	 0.419537 
359.828700 	 0.413473 
358.837700 	 0.403103 
357.835800 	 0.397068 
356.837000 	 0.392786 
355.839800 	 0.385115 
354.847300 	 0.376667 
353.847300 	 0.368022 
352.850600 	 0.357329 
351.841100 	 0.348797 
350.825300 	 0.345120 
349.824400 	 0.341110 
348.816600 	 0.335191 
347.799100 	 0.325611 
346.812900 	 0.318816 
345.807100 	 0.315798 
344.810900 	 0.312931 
343.840400 	 0.313770 
342.826400 	 0.310100 
341.850800 	 0.303208 
340.835800 	 0.292497 
339.806200 	 0.286727 
338.789000 	 0.278402 
337.764100 	 0.272163 
336.771600 	 0.270396 
335.795800 	 0.263191 
334.831900 	 0.262929 
333.847900 	 0.258401 
332.845900 	 0.255702 
331.830200 	 0.249239 
330.836700 	 0.243990 
329.821000 	 0.240720 
328.828800 	 0.234868 
327.837200 	 0.236177 
326.813300 	 0.232536 
325.824800 	 0.231955 
324.844600 	 0.229818 
323.842400 	 0.224881 
322.837900 	 0.220126 
321.841100 	 0.218231 
320.810400 	 0.216425 
319.802700 	 0.213769 
318.832000 	 0.211815 
317.838600 	 0.205601 
316.847600 	 0.204873 
315.860800 	 0.204413 
314.843700 	 0.204283 
313.849000 	 0.197153 
312.859000 	 0.192216 
311.863000 	 0.185392 
310.855300 	 0.179922 
309.847300 	 0.184696 
308.845800 	 0.185751 
307.854400 	 0.186230 
306.876600 	 0.181648 
305.892700 	 0.174413 
304.903800 	 0.168215 
303.908300 	 0.165689 
302.899700 	 0.167315 
301.880200 	 0.169016 
300.855600 	 0.169055 
299.830000 	 0.167557 
298.834300 	 0.164493 
297.806400 	 0.161709 
296.817000 	 0.158332 
295.823400 	 0.154471 
294.820400 	 0.149796 
293.846600 	 0.145787 
292.845000 	 0.143657 
291.843400 	 0.141040 
290.822600 	 0.141182 
289.819600 	 0.134369 
288.793200 	 0.129582 
287.778700 	 0.126683 
286.776700 	 0.124457 
285.793600 	 0.126912 
284.826000 	 0.127744 
283.836500 	 0.123410 
282.858200 	 0.120607 
281.841700 	 0.119684 
280.832000 	 0.116895 
279.855400 	 0.120431 
278.859000 	 0.117876 
277.851300 	 0.113379 
276.871900 	 0.111708 
275.857900 	 0.108429 
274.847800 	 0.107242 
273.875000 	 0.106127 
272.862500 	 0.102315 
271.846800 	 0.097946 
270.843000 	 0.096644 
269.811500 	 0.095761 
268.823200 	 0.093884 
267.833400 	 0.092876 
266.842900 	 0.088416 
265.865400 	 0.086000 
264.829900 	 0.088615 
263.838500 	 0.087924 
262.828200 	 0.088432 
261.830600 	 0.086495 
260.865400 	 0.086208 
259.854000 	 0.081474 
258.862300 	 0.077489 
257.859600 	 0.071633 
256.837500 	 0.062486 
255.852600 	 0.064654 
254.858800 	 0.065500 
253.875000 	 0.063954 
252.884500 	 0.060705 
251.864000 	 0.050307 
250.857200 	 0.043664 
249.835000 	 0.041493 
248.818800 	 0.037984 
247.845500 	 0.034073 
246.827200 	 0.030151 
245.808100 	 0.028604 
244.816700 	 0.027983 
243.801300 	 0.028146 
242.818200 	 0.029506 
241.862700 	 0.026968 
240.858600 	 0.023423 
239.866700 	 0.025518 
238.860800 	 0.021141 
237.824200 	 0.021142 
236.819700 	 0.024873 
235.806200 	 0.021363 
234.812800 	 0.019537 
233.828800 	 0.016354 
232.825700 	 0.010793 
231.837300 	 0.008067 
230.837800 	 0.004230 
229.861900 	 -0.005178 
228.896600 	 -0.015549 
227.911000 	 -0.021534 
226.918400 	 -0.022836 
225.905900 	 -0.020858 
224.891400 	 -0.017542 
223.879900 	 -0.020503 
222.890600 	 -0.027256 
221.890400 	 -0.033332 
220.899700 	 -0.039872 
219.894100 	 -0.041707 
218.902700 	 -0.040664 
217.906400 	 -0.044311 
216.901100 	 -0.045016 
215.918000 	 -0.045725 
214.925800 	 -0.050597 
213.917800 	 -0.048765 
212.936600 	 -0.051893 
211.937900 	 -0.057907 
210.915200 	 -0.059845 
209.900500 	 -0.062893 
208.882800 	 -0.062006 
207.872800 	 -0.063297 
206.880600 	 -0.064540 
205.911300 	 -0.064667 
204.916700 	 -0.065983 
203.946100 	 -0.063896 
202.979600 	 -0.065155 
201.989600 	 -0.067703 
200.982700 	 -0.070285 
199.971800 	 -0.070717 
198.927700 	 -0.072262 
197.900100 	 -0.073124 
196.903500 	 -0.076484 
195.893000 	 -0.080578 
194.894500 	 -0.079957 
193.903700 	 -0.080245 
192.901200 	 -0.079468 
191.902200 	 -0.074242 
190.916400 	 -0.076276 
189.919700 	 -0.077934 
188.918700 	 -0.076907 
187.914200 	 -0.081628 
186.878200 	 -0.081990 
185.859900 	 -0.083120 
184.860300 	 -0.085595 
183.880000 	 -0.091456 
182.914700 	 -0.100299 
181.931000 	 -0.105936 
180.943800 	 -0.112788 
179.931300 	 -0.119122 
178.930000 	 -0.124868 
177.924300 	 -0.132076 
176.917200 	 -0.137432 
175.901700 	 -0.137231 
174.905500 	 -0.138652 
173.900100 	 -0.143881 
172.905700 	 -0.143684 
171.927100 	 -0.155880 
170.905400 	 -0.163314 
169.911900 	 -0.172562 
168.894800 	 -0.186682 
167.866000 	 -0.191542 
166.871000 	 -0.195693 
165.870100 	 -0.198001 
164.884000 	 -0.201118 
163.896900 	 -0.208707 
162.901800 	 -0.216176 
161.908800 	 -0.220754 
160.890400 	 -0.230890 
159.893400 	 -0.235367 
158.892500 	 -0.239937 
157.897900 	 -0.244121 
156.918000 	 -0.243056 
155.925500 	 -0.246425 
154.937000 	 -0.252495 
153.942400 	 -0.261636 
152.971800 	 -0.275279 
151.990700 	 -0.279340 
150.997500 	 -0.281512 
149.963400 	 -0.284899 
148.928200 	 -0.288690 
147.893200 	 -0.299106 
146.876200 	 -0.305701 
145.898700 	 -0.308637 
144.905800 	 -0.311506 
143.919400 	 -0.313387 
142.932900 	 -0.319740 
141.940200 	 -0.323958 
140.948100 	 -0.325018 
139.940600 	 -0.330845 
138.914400 	 -0.335865 
137.890600 	 -0.341792 
136.863600 	 -0.347962 
135.857100 	 -0.348110 
134.859100 	 -0.352236 
133.855500 	 -0.355825 
132.872900 	 -0.355658 
131.883300 	 -0.361833 
130.903600 	 -0.364279 
129.932300 	 -0.368106 
128.932800 	 -0.377198 
127.940000 	 -0.378783 
126.928200 	 -0.379098 
125.925700 	 -0.382373 
124.925300 	 -0.385354 
123.925900 	 -0.392768 
122.941800 	 -0.402069 
121.934500 	 -0.407264 
120.934300 	 -0.411025 
119.938900 	 -0.410257 
118.935500 	 -0.414288 
117.938600 	 -0.421614 
116.961200 	 -0.426190 
115.959700 	 -0.433832 
114.970500 	 -0.436768 
113.986700 	 -0.438111 
112.955700 	 -0.435818 
111.958700 	 -0.438358 
110.947200 	 -0.440928 
109.925300 	 -0.443869 
108.946000 	 -0.453941 
107.955300 	 -0.454534 
106.967800 	 -0.456340 
105.972300 	 -0.457947 
104.968700 	 -0.459301 
103.961300 	 -0.463332 
102.967000 	 -0.467532 
101.971100 	 -0.472995 
100.983500 	 -0.474884 
99.985810 	 -0.478646 
98.973320 	 -0.479724 
97.974710 	 -0.480541 
96.948840 	 -0.483385 
95.947600 	 -0.484135 
94.944990 	 -0.486111 
93.946060 	 -0.486693 
92.957840 	 -0.485517 
91.949720 	 -0.485887 
90.946270 	 -0.484534 
89.933630 	 -0.483463 
88.916340 	 -0.485050 
87.913770 	 -0.484760 
86.894520 	 -0.485045 
85.881610 	 -0.485676 
84.901450 	 -0.485452 
83.913320 	 -0.488900 
82.926540 	 -0.491761 
81.958310 	 -0.490380 
80.936090 	 -0.489569 
79.920270 	 -0.487142 
78.920560 	 -0.486495 
77.908830 	 -0.488203 
76.942150 	 -0.487553 
75.955670 	 -0.486693 
74.986640 	 -0.484351 
73.988030 	 -0.490809 
72.976170 	 -0.493577 
71.974460 	 -0.497473 
70.953380 	 -0.498335 
69.950500 	 -0.491561 
68.963280 	 -0.489108 
67.956440 	 -0.486320 
66.931030 	 -0.488067 
65.951470 	 -0.487487 
64.933100 	 -0.491402 
63.937920 	 -0.491202 
62.970460 	 -0.489290 
61.959070 	 -0.490264 
60.960840 	 -0.487493 
59.953660 	 -0.490657 
58.943870 	 -0.494530 
57.947100 	 -0.496337 
56.950270 	 -0.494690 
55.975830 	 -0.489396 
54.990800 	 -0.485180 
53.976190 	 -0.487959 
52.997210 	 -0.490781 
51.975460 	 -0.492728 
50.961480 	 -0.492293 
49.991660 	 -0.491471 
48.993550 	 -0.490674 
48.004850 	 -0.494169 
47.017230 	 -0.496052 
45.996540 	 -0.496288 
44.980840 	 -0.494209 
43.984180 	 -0.494336 
42.994620 	 -0.495657 
42.008630 	 -0.492982 
41.006320 	 -0.498207 
40.002760 	 -0.497888 
38.969110 	 -0.497822 
37.964980 	 -0.500205 
36.982670 	 -0.497426 
35.986060 	 -0.496087 
34.998370 	 -0.500164 
33.991830 	 -0.498346 
32.969650 	 -0.500289 
31.983470 	 -0.502523 
30.992450 	 -0.499032 
29.987420 	 -0.501664 
28.972160 	 -0.501015 
27.939310 	 -0.500537 
26.920920 	 -0.502633 
25.938380 	 -0.505099 
24.968990 	 -0.511287 
24.007350 	 -0.512986 
23.026270 	 -0.513162 
22.024750 	 -0.513827 
21.021980 	 -0.511726 
20.000710 	 -0.515872 
19.001170 	 -0.519424 
17.996170 	 -0.521999 
16.978650 	 -0.524033 
15.978160 	 -0.521398 
14.983410 	 -0.520904 
13.989380 	 -0.520406 
13.010950 	 -0.518547 
12.037360 	 -0.521062 
11.047070 	 -0.522231 
10.042400 	 -0.520806 
9.039427 	 -0.524512 
8.007397 	 -0.525741 
6.997870 	 -0.527970 
6.012036 	 -0.528721 
5.032922 	 -0.526701 
4.059701 	 -0.526482 
3.060956 	 -0.526759 
2.073256 	 -0.531312 
1.065431 	 -0.538043 
0.061138 	 -0.540530 
-0.928873 	 -0.541642 
-1.903662 	 -0.541245 
-2.872078 	 -0.538523 
-3.834731 	 -0.539604 
-4.788139 	 -0.541349 
-5.789014 	 -0.541858 
-6.788701 	 -0.544634 
-7.803361 	 -0.545948 
-8.823967 	 -0.549511 
-9.848633 	 -0.553982 
-10.837740 	 -0.557786 
-11.848550 	 -0.559273 
-12.837670 	 -0.555920 
-13.809470 	 -0.555502 
-14.819910 	 -0.557211 
-15.804480 	 -0.565541 
-16.817790 	 -0.580973 
-17.834020 	 -0.588951 
-18.851600 	 -0.596342 
-19.851510 	 -0.599982 
-20.854960 	 -0.600811 
-21.849490 	 -0.605921 
-22.848980 	 -0.610809 
-23.848620 	 -0.614844 
-24.836910 	 -0.616124 
-25.843420 	 -0.619199 
-26.822020 	 -0.618962 
-27.835330 	 -0.620495 
-28.854460 	 -0.626468 
-29.860690 	 -0.631111 
-30.862700 	 -0.637108 
-31.834700 	 -0.643640 
-32.817330 	 -0.646756 
-33.801800 	 -0.651421 
-34.804900 	 -0.658429 
-35.830370 	 -0.669682 
-36.820370 	 -0.679712 
-37.829000 	 -0.689536 
-38.839320 	 -0.695231 
-39.825170 	 -0.695074 
-40.838430 	 -0.701158 
-41.836320 	 -0.707646 
-42.829350 	 -0.715689 
-43.841340 	 -0.722052 
-44.829370 	 -0.729019 
-45.816320 	 -0.733137 
-46.810200 	 -0.736243 
-47.799080 	 -0.744800 
-48.815880 	 -0.753254 
-49.815600 	 -0.764070 
-50.816440 	 -0.776710 
-51.805150 	 -0.786435 
-52.798110 	 -0.785801 
-53.812950 	 -0.787401 
-54.828880 	 -0.793275 
-55.843570 	 -0.799407 
-56.835170 	 -0.816076 
-57.844470 	 -0.831707 
-58.818020 	 -0.841630 
-59.832920 	 -0.853271 
-60.846850 	 -0.860126 
-61.855850 	 -0.865816 
-62.901050 	 -0.871801 
-63.889790 	 -0.874543 
-64.879710 	 -0.878233 
-65.857930 	 -0.884713 
-66.818590 	 -0.894582 
-67.818890 	 -0.906724 
-68.828050 	 -0.918227 
-69.835110 	 -0.930987 
-70.863430 	 -0.948428 
-71.879910 	 -0.965496 
-72.892120 	 -0.986282 
-73.887410 	 -1.007796 
-74.873020 	 -1.021183 
-75.855750 	 -1.040015 
-76.866170 	 -1.056434 
-77.852170 	 -1.070013 
-78.850450 	 -1.091712 
-79.848040 	 -1.110576 
-80.836230 	 -1.124804 
-81.855880 	 -1.140161 
-82.855910 	 -1.151982 
-83.845060 	 -1.166437 
-84.828870 	 -1.182483 
-85.808930 	 -1.197335 
-86.807750 	 -1.215705 
-87.802220 	 -1.232266 
-88.795300 	 -1.257951 
-89.804470 	 -1.280584 
-90.780210 	 -1.299465 
-91.813680 	 -1.318053 
-92.816900 	 -1.336331 
-93.807990 	 -1.352718 
-94.842090 	 -1.370054 
-95.810420 	 -1.384419 
-96.813510 	 -1.399045 
-97.817180 	 -1.413676 
