WE1 Volts(mV)    WE1 Idir (uA) 
-100.410800 	 -0.813146 
-100.181200 	 -0.785995 
-99.686420 	 -0.747988 
-98.953280 	 -0.709014 
-97.968980 	 -0.655655 
-96.960450 	 -0.624324 
-95.974590 	 -0.601174 
-94.969920 	 -0.575871 
-93.956050 	 -0.559783 
-92.960590 	 -0.543189 
-91.963220 	 -0.531816 
-90.965870 	 -0.518104 
-89.992110 	 -0.502562 
-89.009670 	 -0.495502 
-87.984440 	 -0.479861 
-86.980450 	 -0.470554 
-85.983240 	 -0.460656 
-84.970920 	 -0.443646 
-83.992720 	 -0.426219 
-83.003670 	 -0.407005 
-81.991710 	 -0.401195 
-80.969070 	 -0.395189 
-79.951210 	 -0.383784 
-78.955240 	 -0.376038 
-77.938680 	 -0.356072 
-76.954990 	 -0.345189 
-75.998440 	 -0.358350 
-74.995040 	 -0.354018 
-74.019520 	 -0.347545 
-73.038060 	 -0.329516 
-72.028880 	 -0.297358 
-71.018140 	 -0.283903 
-70.022610 	 -0.278329 
-69.012650 	 -0.278751 
-67.997050 	 -0.269230 
-67.004230 	 -0.257786 
-65.998610 	 -0.260418 
-65.008000 	 -0.253015 
-64.032510 	 -0.258041 
-63.038950 	 -0.260575 
-62.018550 	 -0.247991 
-60.999400 	 -0.234421 
-60.002100 	 -0.209365 
-59.002310 	 -0.184440 
-58.034870 	 -0.160839 
-57.034080 	 -0.146947 
-56.009700 	 -0.137425 
-54.989420 	 -0.128164 
-53.972080 	 -0.122267 
-52.978110 	 -0.115706 
-51.985180 	 -0.110411 
-51.003230 	 -0.101438 
-49.998700 	 -0.089491 
-48.998450 	 -0.078993 
-47.982120 	 -0.070987 
-46.985970 	 -0.070160 
-45.988430 	 -0.064649 
-44.989430 	 -0.056254 
-44.000000 	 -0.048630 
-42.984310 	 -0.041654 
-41.986200 	 -0.039383 
-40.987580 	 -0.035185 
-39.990940 	 -0.038091 
-38.990510 	 -0.029485 
-37.981430 	 -0.023392 
-36.979180 	 -0.030434 
-35.975180 	 -0.037778 
-34.987530 	 -0.040036 
-34.004100 	 -0.035363 
-33.007990 	 -0.032099 
-31.998070 	 -0.019649 
-31.006290 	 -0.016418 
-29.966680 	 -0.018997 
-28.970540 	 -0.008101 
-27.984880 	 -0.002868 
-26.964370 	 0.004956 
-26.004490 	 0.009087 
-25.015790 	 0.007281 
-24.023180 	 0.007670 
-23.037380 	 0.003130 
-22.032330 	 0.008392 
-21.022590 	 0.021508 
-20.010270 	 0.032619 
-19.023960 	 0.043980 
-17.997310 	 0.050916 
-16.978900 	 0.048154 
-15.980800 	 0.042938 
-14.958920 	 0.040005 
-13.979150 	 0.036701 
-12.992090 	 0.040094 
-11.995460 	 0.040852 
-10.993790 	 0.040356 
-9.997507 	 0.040495 
-8.981772 	 0.040897 
-7.964552 	 0.048781 
-6.965394 	 0.052954 
-5.956957 	 0.058029 
-4.953507 	 0.056376 
-3.991629 	 0.051119 
-3.029289 	 0.051472 
-2.071886 	 0.052296 
-1.098088 	 0.053442 
-0.103008 	 0.050307 
0.899832 	 0.047443 
1.911702 	 0.050126 
2.886491 	 0.054484 
3.889116 	 0.065430 
4.888076 	 0.071363 
5.879953 	 0.073555 
6.882463 	 0.074410 
7.883536 	 0.074689 
8.883239 	 0.074835 
9.866695 	 0.080605 
10.858570 	 0.084446 
11.842390 	 0.083827 
12.844880 	 0.084253 
13.858240 	 0.078221 
14.863210 	 0.080981 
15.864370 	 0.083648 
16.827730 	 0.085517 
17.838870 	 0.087180 
18.838120 	 0.084608 
19.858640 	 0.085185 
20.907770 	 0.089610 
21.899400 	 0.089429 
22.892040 	 0.085539 
23.857090 	 0.088699 
24.819360 	 0.091941 
25.811680 	 0.093714 
26.809350 	 0.094592 
27.821690 	 0.098679 
28.825200 	 0.098811 
29.812130 	 0.100339 
30.802520 	 0.107043 
31.801830 	 0.106050 
32.811120 	 0.105528 
33.834500 	 0.109566 
34.828620 	 0.109556 
35.824260 	 0.108814 
36.800520 	 0.111739 
37.783070 	 0.113015 
38.785630 	 0.117710 
39.813750 	 0.127541 
40.843170 	 0.130242 
41.855220 	 0.128310 
42.882580 	 0.126600 
43.868870 	 0.123803 
44.850880 	 0.127711 
45.854860 	 0.134854 
46.861070 	 0.141718 
47.851890 	 0.140186 
48.864550 	 0.139634 
49.850280 	 0.141748 
50.835000 	 0.140387 
51.849050 	 0.150478 
52.836040 	 0.153139 
53.844080 	 0.154172 
54.828090 	 0.155738 
55.810680 	 0.151146 
56.818520 	 0.151666 
57.803260 	 0.157763 
58.825650 	 0.164231 
59.834900 	 0.172658 
60.848300 	 0.178694 
61.850460 	 0.178100 
62.832080 	 0.176637 
63.811390 	 0.175593 
64.789560 	 0.177600 
65.799810 	 0.181551 
66.793290 	 0.189366 
67.786380 	 0.196357 
68.804960 	 0.201044 
69.785860 	 0.204961 
70.788650 	 0.208164 
71.822980 	 0.206539 
72.805660 	 0.211354 
73.833850 	 0.217237 
74.842880 	 0.215122 
75.823620 	 0.221868 
76.825780 	 0.227157 
77.796230 	 0.228194 
78.788150 	 0.236332 
79.786310 	 0.241395 
80.783770 	 0.245867 
81.798840 	 0.253671 
82.790860 	 0.263707 
83.786890 	 0.272627 
84.791920 	 0.277428 
85.780180 	 0.283556 
86.791720 	 0.288608 
87.780490 	 0.293202 
88.779190 	 0.298683 
89.785550 	 0.301432 
90.772280 	 0.311640 
91.795970 	 0.316341 
92.771970 	 0.323355 
93.784890 	 0.333732 
94.789330 	 0.334525 
95.780330 	 0.336365 
96.810500 	 0.341523 
97.809810 	 0.353108 
98.831070 	 0.361667 
99.836330 	 0.380586 
100.828700 	 0.395916 
101.833600 	 0.403592 
102.820300 	 0.413012 
103.829200 	 0.421259 
104.822200 	 0.428688 
105.802300 	 0.433076 
106.787000 	 0.448250 
107.754400 	 0.457534 
108.750300 	 0.468313 
109.745300 	 0.484679 
110.770700 	 0.490908 
111.793000 	 0.501646 
112.788300 	 0.509869 
113.789600 	 0.519556 
114.759600 	 0.538300 
115.751500 	 0.550496 
116.762000 	 0.568034 
117.762800 	 0.586770 
118.796000 	 0.597184 
119.804100 	 0.609286 
120.799500 	 0.621359 
121.814200 	 0.629871 
122.801400 	 0.645822 
123.804500 	 0.658675 
124.812100 	 0.668183 
125.787600 	 0.682317 
126.786100 	 0.694877 
127.772100 	 0.713384 
128.755000 	 0.731045 
129.781400 	 0.749189 
130.777000 	 0.765545 
131.780900 	 0.778682 
132.809900 	 0.793313 
133.778200 	 0.805099 
134.765800 	 0.817331 
135.761900 	 0.831256 
136.749000 	 0.855044 
137.760900 	 0.876453 
138.779100 	 0.897532 
139.774300 	 0.926464 
140.773100 	 0.944543 
141.778400 	 0.964190 
142.757100 	 0.982832 
143.757700 	 0.995912 
144.768800 	 1.012881 
145.771200 	 1.035340 
146.770000 	 1.056839 
147.770400 	 1.078780 
148.771400 	 1.102809 
149.775800 	 1.116186 
150.797700 	 1.133740 
151.804900 	 1.154083 
152.792400 	 1.172953 
153.796400 	 1.196154 
154.784200 	 1.222205 
155.792600 	 1.242618 
156.782400 	 1.258049 
157.780300 	 1.275424 
158.780200 	 1.296419 
159.770200 	 1.322060 
160.767400 	 1.346802 
161.774700 	 1.376364 
162.796100 	 1.391451 
163.801400 	 1.403478 
164.817900 	 1.422588 
165.779100 	 1.437202 
166.753400 	 1.457500 
167.767500 	 1.483755 
168.746800 	 1.506957 
169.774700 	 1.528682 
170.779200 	 1.548242 
171.757700 	 1.562305 
172.764300 	 1.577071 
173.756300 	 1.588211 
174.756200 	 1.601099 
175.734300 	 1.615340 
176.742800 	 1.627834 
177.737500 	 1.640794 
178.733800 	 1.655223 
179.763300 	 1.671477 
180.754300 	 1.689401 
181.759500 	 1.715515 
182.756000 	 1.737986 
183.750900 	 1.758261 
184.732500 	 1.764392 
185.719000 	 1.772852 
186.721300 	 1.779463 
187.712800 	 1.784900 
188.742400 	 1.803416 
189.772800 	 1.809708 
190.791700 	 1.822088 
191.802400 	 1.830373 
192.803000 	 1.834775 
193.807100 	 1.842438 
194.823500 	 1.842814 
195.801300 	 1.852195 
196.802300 	 1.861758 
197.776300 	 1.863284 
198.755900 	 1.872033 
199.796200 	 1.868612 
200.801000 	 1.865416 
201.817300 	 1.871120 
202.814000 	 1.871754 
203.788400 	 1.875424 
204.776900 	 1.879622 
205.734800 	 1.873833 
206.730000 	 1.874631 
207.720300 	 1.874646 
208.709500 	 1.876410 
209.748200 	 1.886791 
210.731500 	 1.879784 
211.726000 	 1.885153 
212.729100 	 1.888235 
213.702200 	 1.882225 
214.696100 	 1.890116 
215.699600 	 1.886952 
216.696500 	 1.875431 
217.708800 	 1.886445 
218.720900 	 1.889279 
219.733600 	 1.884400 
220.739500 	 1.895412 
221.729500 	 1.892033 
222.730500 	 1.894545 
223.724500 	 1.903136 
224.738800 	 1.900571 
225.754200 	 1.898602 
226.752700 	 1.886582 
227.771200 	 1.882053 
228.760300 	 1.884126 
229.750300 	 1.870936 
230.745000 	 1.870890 
231.717400 	 1.865174 
232.716500 	 1.855036 
233.711600 	 1.856445 
234.695900 	 1.850025 
235.695300 	 1.850218 
236.666900 	 1.846654 
237.673700 	 1.840850 
238.689000 	 1.842917 
239.700900 	 1.835362 
240.719600 	 1.831021 
241.716300 	 1.828856 
242.699600 	 1.825101 
243.679800 	 1.820423 
244.685100 	 1.818540 
245.664300 	 1.816346 
246.675200 	 1.806005 
247.684700 	 1.797755 
248.681400 	 1.789181 
249.695100 	 1.784139 
250.700900 	 1.778279 
251.717400 	 1.779755 
252.715800 	 1.780330 
253.720300 	 1.780439 
254.727100 	 1.783141 
255.706300 	 1.782252 
256.710100 	 1.778876 
257.726100 	 1.777294 
258.713500 	 1.782439 
259.717700 	 1.776726 
260.704300 	 1.774017 
261.681700 	 1.768078 
262.702100 	 1.756126 
263.709200 	 1.754602 
264.725300 	 1.750173 
265.710100 	 1.746007 
266.696700 	 1.744607 
267.691500 	 1.743671 
268.662400 	 1.743198 
269.664400 	 1.746507 
270.664800 	 1.748512 
271.670700 	 1.747862 
272.681500 	 1.744785 
273.695000 	 1.735002 
274.685900 	 1.727956 
275.669300 	 1.727669 
276.668000 	 1.731604 
277.675500 	 1.739784 
278.682200 	 1.745301 
279.690400 	 1.752924 
280.674400 	 1.754605 
281.654100 	 1.760184 
282.649500 	 1.762736 
283.641600 	 1.751118 
284.663800 	 1.745687 
285.664900 	 1.737325 
286.662200 	 1.734697 
287.673400 	 1.739050 
288.673800 	 1.745128 
289.701900 	 1.749479 
290.713400 	 1.754733 
291.705900 	 1.752657 
292.704200 	 1.748933 
293.683000 	 1.746440 
294.676800 	 1.743306 
295.673700 	 1.748134 
296.673700 	 1.749371 
297.677200 	 1.755813 
298.680500 	 1.764418 
299.689400 	 1.774983 
300.705700 	 1.785755 
301.709800 	 1.784660 
302.750200 	 1.779560 
303.754600 	 1.768915 
304.755500 	 1.764089 
305.768900 	 1.767743 
306.736400 	 1.777352 
307.720200 	 1.786136 
308.715800 	 1.784391 
309.701200 	 1.779566 
310.689900 	 1.772926 
311.690600 	 1.776567 
312.692000 	 1.784731 
313.702100 	 1.798708 
314.687500 	 1.811252 
315.697800 	 1.813894 
316.693300 	 1.816922 
317.687900 	 1.820389 
318.723400 	 1.819763 
319.720300 	 1.822043 
320.716800 	 1.829783 
321.732500 	 1.833312 
322.722300 	 1.832239 
323.711300 	 1.832132 
324.704300 	 1.826564 
325.663100 	 1.827239 
326.643500 	 1.835928 
327.659200 	 1.844912 
328.658800 	 1.848462 
329.687300 	 1.851471 
330.708900 	 1.853700 
331.690900 	 1.851351 
332.679300 	 1.855054 
333.646400 	 1.853986 
334.634800 	 1.855509 
335.618500 	 1.862258 
336.613000 	 1.872378 
337.627900 	 1.882390 
338.616400 	 1.896469 
339.655200 	 1.897939 
340.656900 	 1.903677 
341.669300 	 1.908623 
342.678500 	 1.909317 
343.685500 	 1.919541 
344.692300 	 1.920140 
345.699000 	 1.924718 
346.687600 	 1.940491 
347.666800 	 1.954824 
348.661300 	 1.974005 
349.651600 	 1.988132 
350.656900 	 1.978890 
351.666900 	 1.977114 
352.695500 	 1.972386 
353.700800 	 1.975416 
354.691100 	 1.994648 
355.697700 	 2.001419 
356.682000 	 2.008687 
357.667800 	 2.001854 
358.696200 	 2.001288 
359.703100 	 2.006943 
360.712200 	 2.011699 
361.721600 	 2.029587 
362.720600 	 2.027373 
363.692400 	 2.027052 
364.665700 	 2.033739 
365.652100 	 2.039894 
366.651100 	 2.054706 
367.655000 	 2.077123 
368.663300 	 2.085583 
369.686100 	 2.094284 
370.678900 	 2.096089 
371.689500 	 2.096773 
372.690500 	 2.109162 
373.666300 	 2.109000 
374.665400 	 2.119518 
375.644500 	 2.131409 
376.644600 	 2.136606 
377.654400 	 2.147776 
378.644100 	 2.156271 
379.673000 	 2.157476 
380.696800 	 2.164299 
381.687000 	 2.171046 
382.690400 	 2.179208 
383.683300 	 2.189449 
384.650800 	 2.204970 
385.660300 	 2.217263 
386.639500 	 2.224091 
387.614000 	 2.228029 
388.635200 	 2.229809 
389.636400 	 2.237335 
390.653700 	 2.247613 
391.662500 	 2.259447 
392.662000 	 2.265468 
393.677300 	 2.272308 
394.654400 	 2.281190 
395.659300 	 2.292173 
396.656400 	 2.307490 
397.643000 	 2.330209 
398.197400 	 2.296556 
398.225600 	 2.229030 
397.741500 	 2.131821 
396.779800 	 2.006699 
395.797200 	 1.917529 
394.810800 	 1.840833 
393.819700 	 1.779255 
392.810100 	 1.718096 
391.817100 	 1.661061 
390.794300 	 1.613742 
389.800500 	 1.568175 
388.830000 	 1.529509 
387.824200 	 1.491823 
386.822400 	 1.457212 
385.829300 	 1.425097 
384.811100 	 1.395391 
383.813900 	 1.370066 
382.852900 	 1.347614 
381.864800 	 1.324048 
380.872000 	 1.296111 
379.866300 	 1.270591 
378.846000 	 1.242625 
377.811600 	 1.220327 
376.795000 	 1.202784 
375.781900 	 1.187318 
374.785200 	 1.170675 
373.815800 	 1.152176 
372.838400 	 1.138726 
371.855100 	 1.121503 
370.884600 	 1.105993 
369.878500 	 1.090612 
368.859300 	 1.073926 
367.851500 	 1.059509 
366.797200 	 1.051247 
365.792800 	 1.041647 
364.802800 	 1.031238 
363.800300 	 1.022346 
362.832500 	 1.008231 
361.849600 	 0.995426 
360.847600 	 0.981598 
359.859900 	 0.967795 
358.857500 	 0.954395 
357.836900 	 0.942166 
356.842500 	 0.935677 
355.836400 	 0.926514 
354.848200 	 0.921431 
353.868200 	 0.912903 
352.862300 	 0.896616 
351.879900 	 0.887219 
350.861500 	 0.873130 
349.841700 	 0.864829 
348.832200 	 0.863410 
347.801100 	 0.857862 
346.801300 	 0.855747 
345.801200 	 0.843494 
344.818800 	 0.834920 
343.829200 	 0.827766 
342.839900 	 0.817563 
341.826100 	 0.815029 
340.817300 	 0.804094 
339.800600 	 0.793117 
338.770400 	 0.787865 
337.781600 	 0.782082 
336.767800 	 0.775744 
335.793100 	 0.774110 
334.815100 	 0.769663 
333.833000 	 0.766912 
332.850600 	 0.765845 
331.841600 	 0.760248 
330.851400 	 0.755264 
329.831800 	 0.753493 
328.850300 	 0.748834 
327.835200 	 0.740263 
326.843000 	 0.732771 
325.853500 	 0.727363 
324.833300 	 0.724562 
323.868400 	 0.722927 
322.841900 	 0.719238 
321.844700 	 0.710547 
320.841100 	 0.704677 
319.830500 	 0.700203 
318.857900 	 0.698882 
317.846600 	 0.696793 
316.845600 	 0.695760 
315.856400 	 0.691445 
314.851700 	 0.682036 
313.857200 	 0.674010 
312.872600 	 0.667089 
311.854200 	 0.666813 
310.863300 	 0.666987 
309.884500 	 0.663583 
308.878700 	 0.655314 
307.897800 	 0.655011 
306.881300 	 0.654778 
305.887700 	 0.654782 
304.900300 	 0.657878 
303.890000 	 0.650185 
302.883000 	 0.643572 
301.875900 	 0.639945 
300.859400 	 0.633350 
299.873800 	 0.626443 
298.892500 	 0.618368 
297.871600 	 0.609421 
296.871700 	 0.606039 
295.882000 	 0.601716 
294.864500 	 0.596524 
293.873200 	 0.598498 
292.886100 	 0.600809 
291.867600 	 0.602150 
290.870100 	 0.605614 
289.847000 	 0.600032 
288.806500 	 0.592526 
287.778200 	 0.586222 
286.762500 	 0.583084 
285.779400 	 0.581495 
284.801300 	 0.579246 
283.814400 	 0.576015 
282.841900 	 0.573138 
281.852400 	 0.571767 
280.859800 	 0.567678 
279.871300 	 0.567376 
278.870000 	 0.560262 
277.867100 	 0.552828 
276.879700 	 0.547428 
275.858200 	 0.541848 
274.864500 	 0.538808 
273.848100 	 0.539957 
272.829700 	 0.538423 
271.842400 	 0.534461 
270.834200 	 0.526026 
269.848200 	 0.515347 
268.855200 	 0.513673 
267.857600 	 0.513470 
266.851200 	 0.517944 
265.852100 	 0.518457 
264.844500 	 0.509519 
263.842700 	 0.498695 
262.853400 	 0.489430 
261.858200 	 0.482692 
260.864700 	 0.481971 
259.878300 	 0.479522 
258.857000 	 0.477411 
257.836100 	 0.477289 
256.823600 	 0.469923 
255.805100 	 0.461969 
254.831700 	 0.455492 
253.865000 	 0.445523 
252.882800 	 0.441396 
251.900800 	 0.439236 
250.885300 	 0.431280 
249.860600 	 0.428518 
248.844200 	 0.424782 
247.835500 	 0.421545 
246.818900 	 0.418180 
245.807400 	 0.407015 
244.829300 	 0.399424 
243.816100 	 0.392189 
242.837400 	 0.391176 
241.850700 	 0.393522 
240.829600 	 0.382178 
239.830300 	 0.373300 
238.835800 	 0.362666 
237.832800 	 0.352106 
236.830800 	 0.354225 
235.845700 	 0.351285 
234.843700 	 0.345405 
233.846300 	 0.337283 
232.883900 	 0.324550 
231.881800 	 0.315354 
230.894600 	 0.310149 
229.916400 	 0.305943 
228.901000 	 0.302600 
227.908200 	 0.294960 
226.894100 	 0.280927 
225.890700 	 0.266673 
224.900200 	 0.256955 
223.913700 	 0.256773 
222.924100 	 0.255535 
221.924000 	 0.248369 
220.904900 	 0.234238 
219.885100 	 0.217487 
218.876400 	 0.205215 
217.871900 	 0.199203 
216.880500 	 0.193442 
215.882500 	 0.184284 
214.883700 	 0.173365 
213.882900 	 0.157071 
212.884400 	 0.146784 
211.893100 	 0.136304 
210.891900 	 0.131386 
209.904700 	 0.125220 
208.904000 	 0.110760 
207.913600 	 0.099334 
206.918600 	 0.087120 
205.934100 	 0.081389 
204.956600 	 0.080684 
203.964200 	 0.069246 
202.980300 	 0.055650 
201.967300 	 0.035444 
200.963700 	 0.017346 
199.951900 	 0.003643 
198.954300 	 -0.014227 
197.918000 	 -0.028086 
196.913900 	 -0.043433 
195.898300 	 -0.057860 
194.893800 	 -0.066355 
193.917100 	 -0.076449 
192.898600 	 -0.089431 
191.904000 	 -0.102102 
190.904300 	 -0.114400 
189.909700 	 -0.129456 
188.907900 	 -0.145747 
187.916600 	 -0.159236 
186.889300 	 -0.178356 
185.877000 	 -0.191700 
184.882600 	 -0.199842 
183.882100 	 -0.209657 
182.890100 	 -0.219035 
181.883800 	 -0.223833 
180.908200 	 -0.236877 
179.906100 	 -0.252030 
178.902500 	 -0.266100 
177.922800 	 -0.285240 
176.896900 	 -0.304691 
175.897500 	 -0.322453 
174.913700 	 -0.338616 
173.907400 	 -0.350080 
172.914600 	 -0.358802 
171.897100 	 -0.370320 
170.905300 	 -0.384286 
169.898000 	 -0.402047 
168.889100 	 -0.416787 
167.898400 	 -0.426551 
166.884900 	 -0.437867 
165.894100 	 -0.453069 
164.907800 	 -0.466852 
163.910600 	 -0.482844 
162.905700 	 -0.502340 
161.913000 	 -0.513531 
160.916300 	 -0.530466 
159.922900 	 -0.545500 
158.909700 	 -0.551338 
157.895400 	 -0.565966 
156.881500 	 -0.573380 
155.885700 	 -0.584635 
154.903500 	 -0.593324 
153.924300 	 -0.601791 
152.938500 	 -0.614763 
151.948000 	 -0.626949 
150.978100 	 -0.642898 
149.963500 	 -0.653849 
148.955500 	 -0.661879 
147.946700 	 -0.674473 
146.914300 	 -0.689159 
145.917300 	 -0.697233 
144.921800 	 -0.709148 
143.918400 	 -0.712198 
142.928000 	 -0.711604 
141.913500 	 -0.721258 
140.915200 	 -0.731756 
139.915200 	 -0.744115 
138.895000 	 -0.759839 
137.903400 	 -0.766037 
136.860800 	 -0.771034 
135.848000 	 -0.770581 
134.856700 	 -0.768201 
133.869700 	 -0.769865 
132.921700 	 -0.768267 
131.927400 	 -0.772077 
130.935100 	 -0.779544 
129.913800 	 -0.783059 
128.896900 	 -0.789677 
127.911200 	 -0.793926 
126.900500 	 -0.800312 
125.920200 	 -0.811799 
124.922600 	 -0.815573 
123.919500 	 -0.820850 
122.929100 	 -0.820393 
121.920000 	 -0.821278 
120.924300 	 -0.824570 
119.936900 	 -0.824602 
118.932300 	 -0.825061 
117.931600 	 -0.825408 
116.937700 	 -0.821688 
115.918300 	 -0.822588 
114.928900 	 -0.816664 
113.952100 	 -0.813977 
112.934600 	 -0.820236 
111.945900 	 -0.825340 
110.954900 	 -0.832873 
109.940600 	 -0.841298 
108.957000 	 -0.842514 
107.956500 	 -0.846560 
106.953100 	 -0.852522 
105.954100 	 -0.852130 
104.933800 	 -0.850335 
103.929100 	 -0.843281 
102.940200 	 -0.842491 
101.955100 	 -0.838791 
100.989000 	 -0.841124 
100.000700 	 -0.844614 
98.960670 	 -0.842157 
97.944950 	 -0.844266 
96.915750 	 -0.842519 
95.905490 	 -0.834352 
94.931110 	 -0.827587 
93.929990 	 -0.820463 
92.920190 	 -0.819369 
91.902050 	 -0.824024 
90.893050 	 -0.826874 
89.878710 	 -0.830731 
88.899020 	 -0.829573 
87.920070 	 -0.826751 
86.919070 	 -0.827800 
85.937080 	 -0.824783 
84.951420 	 -0.816423 
83.956400 	 -0.817412 
82.955060 	 -0.811516 
81.961910 	 -0.809339 
80.951930 	 -0.817065 
79.941350 	 -0.819948 
78.948220 	 -0.823766 
77.943220 	 -0.820505 
76.948940 	 -0.813119 
75.950970 	 -0.802428 
74.971010 	 -0.797499 
73.969150 	 -0.796188 
72.947850 	 -0.796902 
71.962920 	 -0.793350 
70.936930 	 -0.790891 
69.933510 	 -0.789986 
68.949250 	 -0.788768 
67.928130 	 -0.792769 
66.939930 	 -0.795700 
65.950550 	 -0.794473 
64.945760 	 -0.790214 
63.962090 	 -0.788009 
62.977430 	 -0.781201 
61.981920 	 -0.779996 
60.986050 	 -0.782569 
59.985950 	 -0.781070 
58.980160 	 -0.778714 
57.971600 	 -0.777996 
56.974770 	 -0.772774 
55.975170 	 -0.767545 
54.975570 	 -0.768369 
53.997140 	 -0.764418 
53.001980 	 -0.763518 
52.010540 	 -0.762582 
51.012630 	 -0.764583 
50.018690 	 -0.763272 
49.014810 	 -0.764484 
48.012480 	 -0.770941 
47.023930 	 -0.768353 
46.014380 	 -0.764959 
45.013920 	 -0.759745 
44.010150 	 -0.751692 
43.004430 	 -0.741250 
41.994350 	 -0.741258 
41.001770 	 -0.739363 
40.002660 	 -0.734699 
38.983650 	 -0.738357 
38.005780 	 -0.735879 
37.020080 	 -0.735749 
36.010430 	 -0.741355 
35.009640 	 -0.741254 
33.974490 	 -0.740093 
32.948470 	 -0.738418 
31.962010 	 -0.734864 
30.969210 	 -0.733512 
29.962500 	 -0.734829 
28.957930 	 -0.736273 
27.932700 	 -0.738583 
26.938450 	 -0.739048 
25.957500 	 -0.737679 
24.959760 	 -0.736875 
24.003200 	 -0.731395 
23.001420 	 -0.728540 
22.019070 	 -0.732147 
21.046940 	 -0.729291 
20.036090 	 -0.729610 
19.036670 	 -0.728405 
18.032200 	 -0.723218 
17.029490 	 -0.722743 
16.016530 	 -0.722535 
15.013520 	 -0.721125 
14.012000 	 -0.721834 
13.006510 	 -0.723991 
12.017600 	 -0.723048 
11.039050 	 -0.726453 
10.034310 	 -0.728145 
9.039824 	 -0.729614 
8.034656 	 -0.729656 
7.026136 	 -0.729121 
6.035051 	 -0.724441 
5.044198 	 -0.719834 
4.056036 	 -0.719286 
3.061798 	 -0.718590 
2.072563 	 -0.717899 
1.055260 	 -0.718383 
0.078127 	 -0.718544 
-0.938284 	 -0.717276 
-1.927074 	 -0.719172 
-2.882958 	 -0.718643 
-3.874009 	 -0.723661 
-4.832304 	 -0.725548 
-5.808282 	 -0.727513 
-6.809305 	 -0.729999 
-7.812195 	 -0.724752 
-8.815893 	 -0.722511 
-9.852727 	 -0.723851 
-10.869350 	 -0.720709 
-11.876970 	 -0.731503 
-12.872060 	 -0.739771 
-13.828180 	 -0.741426 
-14.799430 	 -0.747193 
-15.780660 	 -0.756653 
-16.789610 	 -0.759680 
-17.804220 	 -0.765891 
-18.801810 	 -0.773955 
-19.826740 	 -0.763375 
-20.822710 	 -0.762801 
-21.846410 	 -0.762635 
-22.869670 	 -0.758943 
-23.861910 	 -0.756107 
-24.848980 	 -0.760719 
-25.819050 	 -0.762052 
-26.788350 	 -0.765585 
-27.765790 	 -0.768988 
-28.768590 	 -0.764636 
-29.768990 	 -0.764116 
-30.805740 	 -0.769342 
-31.814990 	 -0.767613 
-32.825850 	 -0.767414 
-33.845660 	 -0.765309 
-34.863000 	 -0.759145 
-35.878300 	 -0.767560 
-36.886600 	 -0.787823 
-37.880730 	 -0.799682 
-38.859000 	 -0.808863 
-39.842970 	 -0.812677 
-40.834500 	 -0.805957 
-41.832210 	 -0.806882 
-42.828970 	 -0.807834 
-43.836980 	 -0.810411 
-44.833440 	 -0.809980 
-45.830900 	 -0.811918 
-46.839120 	 -0.816702 
-47.841850 	 -0.814764 
-48.846580 	 -0.820435 
-49.851040 	 -0.828168 
-50.851430 	 -0.835503 
-51.834090 	 -0.850687 
-52.827650 	 -0.857820 
-53.834220 	 -0.861934 
-54.828700 	 -0.865320 
-55.838380 	 -0.869089 
-56.840610 	 -0.872833 
-57.843200 	 -0.878439 
-58.838500 	 -0.882479 
-59.862260 	 -0.891331 
-60.859830 	 -0.897757 
-61.861480 	 -0.904529 
-62.857230 	 -0.916343 
-63.831050 	 -0.920475 
-64.826110 	 -0.926293 
-65.829410 	 -0.930981 
-66.827810 	 -0.934743 
-67.844850 	 -0.937921 
-68.851650 	 -0.945442 
-69.843380 	 -0.955691 
-70.864550 	 -0.959093 
-71.861460 	 -0.966075 
-72.852760 	 -0.978843 
-73.861770 	 -0.986474 
-74.844210 	 -0.999535 
-75.842580 	 -1.012393 
-76.836690 	 -1.021163 
-77.800540 	 -1.033536 
-78.794510 	 -1.047581 
-79.799120 	 -1.061956 
-80.828430 	 -1.068613 
-81.850930 	 -1.080685 
-82.857830 	 -1.091981 
-83.851900 	 -1.102498 
-84.826810 	 -1.121472 
-85.834030 	 -1.133584 
-86.822790 	 -1.146263 
-87.827140 	 -1.157921 
-88.838290 	 -1.169286 
-89.827540 	 -1.174829 
-90.820620 	 -1.180498 
-91.816650 	 -1.190690 
-92.823460 	 -1.197102 
-93.828210 	 -1.212252 
-94.850150 	 -1.226109 
-95.847600 	 -1.228963 
-96.845000 	 -1.240402 
-97.837330 	 -1.246227 
