WE1 Volts(mV)    WE1 Idir (uA) 
-100.370200 	 -0.441192 
-100.158000 	 -0.421157 
-99.681040 	 -0.397365 
-98.962260 	 -0.369162 
-97.984040 	 -0.335681 
-96.969470 	 -0.320370 
-95.980760 	 -0.304456 
-94.968910 	 -0.289544 
-93.955890 	 -0.275233 
-92.967820 	 -0.263689 
-91.960540 	 -0.251599 
-90.954480 	 -0.239741 
-89.976260 	 -0.229898 
-88.984380 	 -0.218164 
-87.977190 	 -0.209011 
-87.002050 	 -0.203639 
-85.995480 	 -0.197697 
-84.986760 	 -0.191818 
-83.992490 	 -0.185165 
-82.980800 	 -0.177598 
-81.986980 	 -0.169539 
-80.968070 	 -0.161384 
-79.973630 	 -0.155189 
-78.971310 	 -0.146826 
-77.939850 	 -0.139849 
-76.972570 	 -0.134380 
-75.966140 	 -0.127559 
-74.961890 	 -0.121530 
-73.986380 	 -0.118146 
-72.981250 	 -0.113018 
-72.004780 	 -0.108160 
-71.033420 	 -0.104186 
-70.062950 	 -0.099436 
-69.053680 	 -0.094924 
-68.031520 	 -0.089583 
-67.013190 	 -0.087437 
-65.992160 	 -0.080867 
-64.996540 	 -0.074713 
-64.009950 	 -0.073054 
-63.003830 	 -0.063960 
-61.983470 	 -0.059315 
-60.984210 	 -0.058157 
-59.977150 	 -0.051919 
-58.965510 	 -0.048299 
-57.964160 	 -0.045739 
-56.955360 	 -0.038989 
-55.942430 	 -0.034623 
-54.926060 	 -0.033541 
-53.945150 	 -0.030891 
-52.923320 	 -0.030256 
-51.916130 	 -0.028695 
-50.947680 	 -0.026226 
-49.941650 	 -0.023811 
-48.947200 	 -0.021027 
-47.972430 	 -0.020419 
-46.969900 	 -0.019028 
-45.968810 	 -0.017057 
-44.987880 	 -0.015308 
-43.973370 	 -0.011095 
-42.983890 	 -0.007888 
-41.985080 	 -0.004654 
-40.973750 	 -0.000224 
-39.974160 	 0.003447 
-38.979000 	 0.005825 
-37.971290 	 0.008076 
-36.973750 	 0.007673 
-35.978170 	 0.006363 
-34.952500 	 0.006321 
-33.963110 	 0.006273 
-32.956490 	 0.006932 
-31.945350 	 0.007755 
-30.963480 	 0.010123 
-29.966680 	 0.013569 
-28.964980 	 0.017462 
-27.963940 	 0.022305 
-26.954680 	 0.025905 
-25.957820 	 0.025245 
-24.971210 	 0.025058 
-23.985950 	 0.023073 
-22.994420 	 0.019664 
-21.978210 	 0.019491 
-20.974740 	 0.019525 
-19.975050 	 0.020366 
-18.975400 	 0.023397 
-17.986280 	 0.027671 
-16.973530 	 0.033129 
-15.954580 	 0.036951 
-14.936040 	 0.038630 
-13.911690 	 0.038520 
-12.929350 	 0.035533 
-11.932690 	 0.034793 
-10.946940 	 0.035718 
-9.977398 	 0.035677 
-8.954068 	 0.037565 
-7.961052 	 0.039714 
-6.953986 	 0.041306 
-5.932736 	 0.044726 
-4.939308 	 0.047426 
-3.958840 	 0.047238 
-2.980963 	 0.048127 
-2.008503 	 0.048849 
-1.057258 	 0.049308 
-0.075106 	 0.049798 
0.910745 	 0.049378 
1.919925 	 0.050256 
2.917514 	 0.050178 
3.909243 	 0.052000 
4.899468 	 0.054980 
5.868660 	 0.054572 
6.880878 	 0.055148 
7.861891 	 0.057046 
8.865969 	 0.058543 
9.869006 	 0.061128 
10.863210 	 0.063825 
11.884330 	 0.065968 
12.887550 	 0.065615 
13.871200 	 0.065394 
14.866040 	 0.066343 
15.864850 	 0.065839 
16.842380 	 0.065617 
17.848420 	 0.067052 
18.841040 	 0.067005 
19.833760 	 0.068664 
20.875480 	 0.073168 
21.877540 	 0.074700 
22.893660 	 0.075725 
23.916230 	 0.075061 
24.884360 	 0.073073 
25.886610 	 0.073458 
26.881490 	 0.073663 
27.865010 	 0.075571 
28.868480 	 0.077258 
29.854630 	 0.078555 
30.837370 	 0.081314 
31.845870 	 0.084544 
32.849290 	 0.087195 
33.878600 	 0.090637 
34.888890 	 0.091938 
35.875330 	 0.091594 
36.869170 	 0.091972 
37.853940 	 0.091251 
38.859070 	 0.092534 
39.865380 	 0.093423 
40.861770 	 0.094786 
41.856970 	 0.097062 
42.857350 	 0.099811 
43.851800 	 0.102577 
44.863990 	 0.106376 
45.875410 	 0.109214 
46.876520 	 0.112540 
47.877260 	 0.116585 
48.868030 	 0.118738 
49.861530 	 0.120491 
50.847460 	 0.119155 
51.827020 	 0.120139 
52.821530 	 0.121607 
53.823060 	 0.123111 
54.811440 	 0.127082 
55.832830 	 0.129174 
56.840190 	 0.130959 
57.840320 	 0.134368 
58.851550 	 0.138952 
59.847160 	 0.143370 
60.848900 	 0.147163 
61.844730 	 0.148868 
62.863640 	 0.149708 
63.861850 	 0.150145 
64.844420 	 0.151977 
65.844520 	 0.156270 
66.820470 	 0.158876 
67.808490 	 0.162147 
68.811810 	 0.166126 
69.783290 	 0.168330 
70.794200 	 0.173806 
71.827260 	 0.179012 
72.840050 	 0.183270 
73.868370 	 0.187192 
74.859560 	 0.188817 
75.841950 	 0.190838 
76.832920 	 0.192497 
77.805440 	 0.195432 
78.794190 	 0.200325 
79.784830 	 0.205585 
80.775570 	 0.210493 
81.799670 	 0.218554 
82.799800 	 0.223963 
83.783930 	 0.229679 
84.789660 	 0.235965 
85.785870 	 0.239620 
86.776670 	 0.244357 
87.786040 	 0.249196 
88.781430 	 0.254998 
89.773970 	 0.259664 
90.794270 	 0.266124 
91.795700 	 0.272585 
92.808230 	 0.278200 
93.823900 	 0.285299 
94.818830 	 0.292141 
95.835710 	 0.298849 
96.846440 	 0.307069 
97.861000 	 0.316939 
98.882450 	 0.323521 
99.883670 	 0.329810 
100.880400 	 0.335264 
101.858100 	 0.339029 
102.844900 	 0.347308 
103.837300 	 0.357160 
104.832300 	 0.367756 
105.840300 	 0.378403 
106.852200 	 0.387728 
107.853300 	 0.395305 
108.842400 	 0.404136 
109.827700 	 0.413450 
110.810300 	 0.423554 
111.812700 	 0.433711 
112.803900 	 0.442553 
113.819800 	 0.451546 
114.819000 	 0.459654 
115.817400 	 0.469446 
116.833500 	 0.480264 
117.811600 	 0.489535 
118.784300 	 0.500350 
119.778100 	 0.512405 
120.758800 	 0.524949 
121.755900 	 0.541438 
122.800700 	 0.555535 
123.801800 	 0.568668 
124.815500 	 0.580407 
125.820700 	 0.590048 
126.805600 	 0.601758 
127.804300 	 0.611966 
128.800700 	 0.624376 
129.792200 	 0.638454 
130.771600 	 0.651367 
131.750200 	 0.667766 
132.752900 	 0.685568 
133.739800 	 0.701409 
134.755900 	 0.718916 
135.794000 	 0.735234 
136.787800 	 0.748258 
137.813900 	 0.762626 
138.784600 	 0.776359 
139.759900 	 0.790896 
140.755500 	 0.807040 
141.763200 	 0.824918 
142.798900 	 0.845457 
143.786900 	 0.863550 
144.794700 	 0.882274 
145.789700 	 0.900645 
146.765100 	 0.914362 
147.774300 	 0.932497 
148.760000 	 0.951620 
149.772600 	 0.967896 
150.792700 	 0.986576 
151.812400 	 1.003876 
152.833800 	 1.020035 
153.812100 	 1.039340 
154.806200 	 1.058961 
155.791900 	 1.078128 
156.779600 	 1.095942 
157.792300 	 1.113014 
158.782600 	 1.132143 
159.781600 	 1.150130 
160.761800 	 1.169444 
161.755800 	 1.190222 
162.763400 	 1.206102 
163.743800 	 1.222840 
164.765800 	 1.241039 
165.765200 	 1.256409 
166.755800 	 1.275331 
167.757800 	 1.293437 
168.761900 	 1.309410 
169.755200 	 1.328092 
170.758100 	 1.346360 
171.773700 	 1.366685 
172.768200 	 1.386442 
173.767100 	 1.403932 
174.782900 	 1.421047 
175.782000 	 1.434153 
176.781300 	 1.446410 
177.804500 	 1.460364 
178.784400 	 1.472355 
179.781300 	 1.486812 
180.774100 	 1.504480 
181.745700 	 1.519966 
182.765500 	 1.537300 
183.761300 	 1.552712 
184.757300 	 1.565360 
185.780200 	 1.578560 
186.771100 	 1.588884 
187.787100 	 1.601387 
188.800800 	 1.611874 
189.775500 	 1.621612 
190.781900 	 1.632961 
191.774900 	 1.643045 
192.767600 	 1.655515 
193.799600 	 1.668657 
194.789000 	 1.678440 
195.787000 	 1.687361 
196.798200 	 1.695241 
197.776800 	 1.700897 
198.795200 	 1.709392 
199.794300 	 1.716515 
200.797800 	 1.721414 
201.811300 	 1.727128 
202.793800 	 1.731512 
203.808200 	 1.734223 
204.800300 	 1.739567 
205.794500 	 1.743440 
206.799100 	 1.746484 
207.780000 	 1.750303 
208.792600 	 1.752760 
209.785000 	 1.757007 
210.769200 	 1.757987 
211.768900 	 1.760210 
212.772200 	 1.761587 
213.769700 	 1.758472 
214.767100 	 1.758499 
215.778800 	 1.757490 
216.744400 	 1.753675 
217.733000 	 1.751839 
218.740700 	 1.749882 
219.734800 	 1.747433 
220.739200 	 1.747164 
221.749500 	 1.746162 
222.743200 	 1.743552 
223.736000 	 1.739553 
224.733900 	 1.735210 
225.748500 	 1.732032 
226.747600 	 1.725303 
227.752600 	 1.719388 
228.748000 	 1.713849 
229.698900 	 1.704641 
230.705900 	 1.700917 
231.695300 	 1.697340 
232.705000 	 1.692845 
233.721300 	 1.688492 
234.698300 	 1.681520 
235.704600 	 1.675661 
236.696600 	 1.668607 
237.696000 	 1.662338 
238.706400 	 1.658976 
239.698400 	 1.651336 
240.689500 	 1.645423 
241.689400 	 1.640674 
242.682600 	 1.631609 
243.665300 	 1.625911 
244.669600 	 1.619433 
245.667400 	 1.610890 
246.668000 	 1.603973 
247.665600 	 1.596556 
248.679100 	 1.588399 
249.685300 	 1.581306 
250.690100 	 1.574414 
251.737600 	 1.567002 
252.757200 	 1.559130 
253.767600 	 1.550900 
254.785400 	 1.544392 
255.754200 	 1.536916 
256.734400 	 1.529625 
257.732300 	 1.524381 
258.716200 	 1.516814 
259.717000 	 1.510241 
260.705900 	 1.503165 
261.695200 	 1.493993 
262.696000 	 1.486758 
263.710100 	 1.479589 
264.717700 	 1.473209 
265.730800 	 1.466508 
266.739600 	 1.459161 
267.720900 	 1.450402 
268.713200 	 1.442357 
269.697600 	 1.435451 
270.701400 	 1.430684 
271.704400 	 1.426416 
272.697600 	 1.421407 
273.692000 	 1.415476 
274.688600 	 1.406772 
275.690300 	 1.399096 
276.702100 	 1.392226 
277.717200 	 1.384854 
278.720900 	 1.379109 
279.733500 	 1.373365 
280.720100 	 1.367086 
281.712200 	 1.363786 
282.700900 	 1.359159 
283.697300 	 1.354032 
284.698000 	 1.349319 
285.692300 	 1.342191 
286.694500 	 1.336027 
287.681800 	 1.329923 
288.664600 	 1.324270 
289.666100 	 1.320399 
290.654100 	 1.316357 
291.664700 	 1.312969 
292.701900 	 1.310495 
293.713500 	 1.307120 
294.713600 	 1.303864 
295.725400 	 1.300221 
296.714000 	 1.295675 
297.703500 	 1.292070 
298.710600 	 1.288345 
299.668100 	 1.284777 
300.672200 	 1.281740 
301.669700 	 1.278264 
302.708100 	 1.276773 
303.756900 	 1.273968 
304.760600 	 1.271331 
305.783200 	 1.268883 
306.762600 	 1.264597 
307.741300 	 1.263427 
308.746500 	 1.263000 
309.723300 	 1.261691 
310.700800 	 1.259939 
311.709200 	 1.256843 
312.704600 	 1.252218 
313.700900 	 1.248992 
314.714300 	 1.247763 
315.723500 	 1.247324 
316.712200 	 1.246574 
317.710700 	 1.245191 
318.701700 	 1.244330 
319.667500 	 1.242562 
320.679000 	 1.243611 
321.711400 	 1.245622 
322.725100 	 1.244315 
323.751200 	 1.243509 
324.754000 	 1.241399 
325.737600 	 1.238798 
326.733200 	 1.238861 
327.720400 	 1.238837 
328.720500 	 1.238358 
329.724700 	 1.238780 
330.721600 	 1.239135 
331.718500 	 1.241312 
332.708200 	 1.243744 
333.694300 	 1.244835 
334.701200 	 1.246527 
335.703100 	 1.245250 
336.686500 	 1.244051 
337.691000 	 1.244568 
338.675900 	 1.244489 
339.654800 	 1.246117 
340.667500 	 1.248948 
341.650800 	 1.250842 
342.648500 	 1.253276 
343.671000 	 1.256208 
344.668300 	 1.258785 
345.660800 	 1.262045 
346.677900 	 1.264782 
347.681500 	 1.267580 
348.671700 	 1.269271 
349.692700 	 1.269391 
350.673700 	 1.270003 
351.669100 	 1.270509 
352.689000 	 1.272957 
353.702500 	 1.277596 
354.725600 	 1.281952 
355.734200 	 1.286603 
356.734400 	 1.290103 
357.717000 	 1.292280 
358.687400 	 1.296113 
359.674500 	 1.299522 
360.672900 	 1.302179 
361.683300 	 1.304750 
362.700100 	 1.306509 
363.704300 	 1.308843 
364.686600 	 1.313295 
365.679600 	 1.318577 
366.693800 	 1.323642 
367.691300 	 1.326823 
368.678200 	 1.329843 
369.689900 	 1.334075 
370.664100 	 1.338603 
371.662300 	 1.344910 
372.679900 	 1.350461 
373.662700 	 1.352904 
374.683000 	 1.355632 
375.692100 	 1.358832 
376.695100 	 1.360994 
377.697800 	 1.366091 
378.688100 	 1.371027 
379.691900 	 1.375677 
380.701700 	 1.381440 
381.704600 	 1.387056 
382.698400 	 1.393048 
383.681400 	 1.400315 
384.649700 	 1.404207 
385.659900 	 1.410910 
386.631900 	 1.414936 
387.630800 	 1.418304 
388.652300 	 1.425789 
389.627000 	 1.430160 
390.656000 	 1.436532 
391.674900 	 1.442698 
392.671900 	 1.449073 
393.691900 	 1.454525 
394.698800 	 1.459960 
395.694200 	 1.465989 
396.702800 	 1.472853 
397.697100 	 1.480095 
398.225500 	 1.453063 
398.264600 	 1.411171 
397.801200 	 1.354720 
396.838500 	 1.287533 
395.856900 	 1.246158 
394.864400 	 1.209445 
393.879600 	 1.177336 
392.873700 	 1.148283 
391.873500 	 1.121589 
390.850300 	 1.095058 
389.837500 	 1.071412 
388.871000 	 1.049982 
387.858600 	 1.028535 
386.866900 	 1.011855 
385.861600 	 0.995178 
384.843100 	 0.978429 
383.855700 	 0.964013 
382.873300 	 0.948891 
381.894900 	 0.934173 
380.895300 	 0.921309 
379.887800 	 0.907623 
378.867700 	 0.894263 
377.845200 	 0.882193 
376.824100 	 0.870005 
375.826500 	 0.860633 
374.832100 	 0.851269 
373.840100 	 0.843079 
372.869800 	 0.836234 
371.860600 	 0.826927 
370.846700 	 0.818364 
369.851200 	 0.810204 
368.846900 	 0.801091 
367.849000 	 0.794763 
366.862100 	 0.789172 
365.850600 	 0.781489 
364.861100 	 0.773772 
363.855100 	 0.765346 
362.862500 	 0.756948 
361.873000 	 0.749602 
360.851800 	 0.743486 
359.858900 	 0.737626 
358.860500 	 0.730978 
357.843200 	 0.725476 
356.861000 	 0.720955 
355.865800 	 0.714864 
354.860700 	 0.710861 
353.862200 	 0.707723 
352.860400 	 0.703242 
351.874300 	 0.700378 
350.868400 	 0.696335 
349.876900 	 0.691958 
348.853500 	 0.688529 
347.820400 	 0.685444 
346.813400 	 0.682609 
345.816800 	 0.677774 
344.832000 	 0.671166 
343.841700 	 0.664127 
342.850500 	 0.656973 
341.857900 	 0.651683 
340.859600 	 0.648270 
339.848900 	 0.644596 
338.846900 	 0.641969 
337.833600 	 0.639803 
336.829000 	 0.637032 
335.852300 	 0.635748 
334.858300 	 0.633737 
333.857800 	 0.631261 
332.854700 	 0.629124 
331.866500 	 0.625432 
330.855800 	 0.623636 
329.872000 	 0.621590 
328.895200 	 0.619700 
327.878400 	 0.618646 
326.872200 	 0.615547 
325.859200 	 0.611358 
324.851100 	 0.607509 
323.850100 	 0.602449 
322.863900 	 0.598355 
321.872800 	 0.595818 
320.857300 	 0.591592 
319.872600 	 0.589311 
318.864900 	 0.586414 
317.858000 	 0.583604 
316.857500 	 0.582544 
315.836200 	 0.581243 
314.845000 	 0.580160 
313.841900 	 0.578086 
312.841900 	 0.575100 
311.848400 	 0.572283 
310.853500 	 0.570124 
309.848500 	 0.568358 
308.851200 	 0.567347 
307.849500 	 0.564341 
306.852800 	 0.561121 
305.882100 	 0.557935 
304.900300 	 0.553488 
303.888200 	 0.550751 
302.903400 	 0.547814 
301.869300 	 0.544326 
300.867900 	 0.542627 
299.874500 	 0.539618 
298.840300 	 0.537135 
297.852200 	 0.535148 
296.839000 	 0.532738 
295.848500 	 0.532412 
294.851300 	 0.529952 
293.867900 	 0.528797 
292.867500 	 0.526827 
291.853400 	 0.522037 
290.849700 	 0.520106 
289.826200 	 0.517641 
288.817300 	 0.515145 
287.807300 	 0.514628 
286.796900 	 0.514684 
285.779800 	 0.512513 
284.798700 	 0.509931 
283.820200 	 0.506468 
282.853300 	 0.501505 
281.881600 	 0.497273 
280.864100 	 0.493935 
279.860000 	 0.491700 
278.856600 	 0.487752 
277.849300 	 0.485058 
276.853700 	 0.482443 
275.851400 	 0.478704 
274.843700 	 0.475847 
273.849700 	 0.472422 
272.856300 	 0.468538 
271.863500 	 0.464317 
270.859800 	 0.461120 
269.869800 	 0.457966 
268.876600 	 0.454955 
267.881900 	 0.451310 
266.889700 	 0.448149 
265.896800 	 0.444491 
264.894000 	 0.441205 
263.900600 	 0.439898 
262.892900 	 0.438157 
261.857700 	 0.439541 
260.854800 	 0.441976 
259.839400 	 0.438477 
258.833100 	 0.433202 
257.830600 	 0.427924 
256.836000 	 0.420202 
255.857100 	 0.415785 
254.874500 	 0.412943 
253.906200 	 0.405553 
252.906300 	 0.400205 
251.906600 	 0.393075 
250.909300 	 0.386270 
249.890700 	 0.381389 
248.865600 	 0.374307 
247.835600 	 0.371212 
246.826000 	 0.366788 
245.835800 	 0.361815 
244.853100 	 0.357831 
243.868500 	 0.351570 
242.869500 	 0.343582 
241.878400 	 0.338853 
240.875000 	 0.331799 
239.864900 	 0.326476 
238.872800 	 0.323295 
237.858000 	 0.316880 
236.855800 	 0.312159 
235.867300 	 0.305705 
234.882200 	 0.298224 
233.897300 	 0.290317 
232.904400 	 0.281850 
231.914800 	 0.275138 
230.897500 	 0.266313 
229.895300 	 0.258317 
228.920200 	 0.252803 
227.920400 	 0.243935 
226.918400 	 0.238330 
225.918400 	 0.233696 
224.888000 	 0.226856 
223.872700 	 0.221936 
222.900000 	 0.217077 
221.898800 	 0.212180 
220.912100 	 0.204231 
219.927300 	 0.196794 
218.915600 	 0.187255 
217.911500 	 0.176028 
216.912400 	 0.167867 
215.937700 	 0.158181 
214.949000 	 0.146059 
213.969600 	 0.132885 
212.975200 	 0.120468 
211.952500 	 0.106964 
210.934000 	 0.095399 
209.913100 	 0.086286 
208.920100 	 0.075910 
207.930400 	 0.067284 
206.939700 	 0.060042 
205.955600 	 0.052122 
204.963800 	 0.043568 
203.977200 	 0.034832 
202.999300 	 0.024645 
202.007400 	 0.012181 
200.999600 	 0.000576 
199.977600 	 -0.009569 
198.955000 	 -0.020366 
197.933700 	 -0.030345 
196.936400 	 -0.040036 
195.921700 	 -0.052174 
194.910000 	 -0.064043 
193.921900 	 -0.075594 
192.906200 	 -0.087995 
191.935200 	 -0.099331 
190.932800 	 -0.111764 
189.939500 	 -0.124787 
188.950600 	 -0.136765 
187.915400 	 -0.148622 
186.914300 	 -0.157186 
185.902200 	 -0.163941 
184.892500 	 -0.172420 
183.907100 	 -0.180962 
182.914900 	 -0.192245 
181.905200 	 -0.205116 
180.899200 	 -0.216158 
179.892000 	 -0.228107 
178.895700 	 -0.238074 
177.928000 	 -0.247129 
176.939800 	 -0.259117 
175.953900 	 -0.268603 
174.938100 	 -0.279307 
173.911900 	 -0.291874 
172.896000 	 -0.301453 
171.885300 	 -0.313126 
170.896200 	 -0.325593 
169.898500 	 -0.336641 
168.899800 	 -0.347677 
167.899000 	 -0.356609 
166.895900 	 -0.363455 
165.893600 	 -0.369144 
164.922500 	 -0.374839 
163.925100 	 -0.383621 
162.936600 	 -0.391873 
161.926900 	 -0.400960 
160.900800 	 -0.411334 
159.919400 	 -0.417758 
158.913600 	 -0.424040 
157.931700 	 -0.429439 
156.937000 	 -0.433889 
155.936600 	 -0.438706 
154.945200 	 -0.444465 
153.942700 	 -0.451147 
152.975400 	 -0.457011 
151.969700 	 -0.465279 
150.965600 	 -0.475659 
149.950900 	 -0.486501 
148.920700 	 -0.497142 
147.914300 	 -0.507123 
146.908500 	 -0.512506 
145.926700 	 -0.516331 
144.906900 	 -0.521965 
143.905600 	 -0.526047 
142.892200 	 -0.531449 
141.870600 	 -0.536766 
140.878200 	 -0.541287 
139.878300 	 -0.546351 
138.897100 	 -0.550980 
137.913300 	 -0.557366 
136.925000 	 -0.561052 
135.930900 	 -0.563099 
134.921300 	 -0.565862 
133.911200 	 -0.566947 
132.913000 	 -0.567335 
131.901700 	 -0.570799 
130.900400 	 -0.573974 
129.898100 	 -0.575935 
128.901600 	 -0.579320 
127.910200 	 -0.579262 
126.926500 	 -0.578416 
125.950400 	 -0.580457 
124.942500 	 -0.583703 
123.953600 	 -0.588266 
122.939500 	 -0.592029 
121.932600 	 -0.594495 
120.928400 	 -0.595462 
119.910400 	 -0.591574 
118.903800 	 -0.580762 
117.893000 	 -0.568802 
116.912200 	 -0.556673 
115.935900 	 -0.552805 
114.946500 	 -0.559386 
113.988800 	 -0.565690 
112.983400 	 -0.579298 
111.976500 	 -0.588146 
110.979900 	 -0.590346 
109.953000 	 -0.592505 
108.967500 	 -0.587325 
107.952200 	 -0.584717 
106.951200 	 -0.586502 
105.963000 	 -0.589628 
104.938500 	 -0.592447 
103.957500 	 -0.590041 
102.976700 	 -0.587303 
101.978200 	 -0.582617 
101.009900 	 -0.576179 
99.998270 	 -0.570326 
98.990510 	 -0.563114 
97.983900 	 -0.558645 
96.947300 	 -0.558982 
95.953500 	 -0.565033 
94.933690 	 -0.575331 
93.929920 	 -0.585773 
92.940080 	 -0.593265 
91.925590 	 -0.596508 
90.928080 	 -0.596401 
89.927550 	 -0.593181 
88.927990 	 -0.588122 
87.962360 	 -0.584395 
86.968840 	 -0.582679 
85.964630 	 -0.581369 
84.971370 	 -0.582027 
83.945720 	 -0.582206 
82.940290 	 -0.580150 
81.938610 	 -0.577942 
80.941220 	 -0.575463 
79.936120 	 -0.573747 
78.946880 	 -0.571010 
77.949860 	 -0.568815 
76.954280 	 -0.566506 
75.974990 	 -0.565016 
74.994780 	 -0.563090 
73.998250 	 -0.559835 
72.985900 	 -0.555862 
71.981410 	 -0.546968 
70.968440 	 -0.538399 
69.963010 	 -0.530893 
68.973130 	 -0.523943 
67.961070 	 -0.522476 
66.956990 	 -0.524764 
65.988490 	 -0.530127 
64.975110 	 -0.537805 
63.983190 	 -0.544964 
62.996990 	 -0.549731 
61.957390 	 -0.552802 
60.961940 	 -0.552530 
59.963120 	 -0.548761 
58.949210 	 -0.541750 
57.956540 	 -0.533712 
56.969260 	 -0.528594 
55.974000 	 -0.525832 
54.983950 	 -0.526699 
53.994550 	 -0.527556 
52.987090 	 -0.527037 
51.983490 	 -0.527348 
50.969790 	 -0.527699 
49.982800 	 -0.527710 
48.973370 	 -0.529056 
47.974590 	 -0.528852 
46.990890 	 -0.528104 
45.972150 	 -0.528779 
44.972920 	 -0.528451 
43.978830 	 -0.528287 
42.957500 	 -0.527103 
41.954200 	 -0.522049 
40.959500 	 -0.513075 
39.965260 	 -0.507420 
38.988740 	 -0.504367 
37.988990 	 -0.505059 
36.992280 	 -0.509286 
35.984960 	 -0.511177 
34.984600 	 -0.510618 
33.989170 	 -0.509717 
32.981460 	 -0.510335 
31.968460 	 -0.510058 
30.960430 	 -0.510569 
29.978720 	 -0.511249 
29.005680 	 -0.511078 
27.994930 	 -0.511180 
27.002820 	 -0.510900 
25.990180 	 -0.511419 
24.961000 	 -0.510703 
23.990440 	 -0.510032 
22.993920 	 -0.510404 
22.000180 	 -0.509375 
21.034560 	 -0.506826 
20.033530 	 -0.505860 
19.028640 	 -0.503702 
18.029320 	 -0.501479 
17.017040 	 -0.503152 
16.003770 	 -0.501608 
14.994340 	 -0.501062 
13.994140 	 -0.501188 
13.011990 	 -0.500589 
12.035600 	 -0.501798 
11.055110 	 -0.499274 
10.063800 	 -0.497151 
9.048409 	 -0.494255 
8.048573 	 -0.490604 
7.027771 	 -0.490839 
5.997226 	 -0.492227 
4.993429 	 -0.493902 
3.980518 	 -0.497241 
2.976275 	 -0.499759 
2.020853 	 -0.499372 
1.037825 	 -0.498927 
0.073207 	 -0.497367 
-0.864549 	 -0.496084 
-1.830505 	 -0.494646 
-2.793505 	 -0.495662 
-3.784061 	 -0.497048 
-4.787198 	 -0.498338 
-5.805871 	 -0.502089 
-6.819211 	 -0.503116 
-7.824660 	 -0.504647 
-8.821622 	 -0.505521 
-9.812656 	 -0.505646 
-10.803790 	 -0.505469 
-11.805010 	 -0.505945 
-12.805030 	 -0.506464 
-13.815180 	 -0.507466 
-14.838760 	 -0.509895 
-15.859460 	 -0.510580 
-16.877540 	 -0.511667 
-17.890550 	 -0.511367 
-18.872260 	 -0.510030 
-19.845530 	 -0.510253 
-20.827370 	 -0.510474 
-21.804710 	 -0.512346 
-22.812510 	 -0.514931 
-23.799700 	 -0.516663 
-24.811400 	 -0.519563 
-25.817280 	 -0.521018 
-26.786040 	 -0.521713 
-27.801200 	 -0.524034 
-28.807240 	 -0.524043 
-29.793440 	 -0.524435 
-30.820220 	 -0.525408 
-31.814370 	 -0.524826 
-32.806980 	 -0.525893 
-33.829700 	 -0.529640 
-34.843020 	 -0.531626 
-35.858730 	 -0.533659 
-36.848020 	 -0.534531 
-37.821240 	 -0.533494 
-38.805490 	 -0.535045 
-39.803210 	 -0.537556 
-40.806430 	 -0.543009 
-41.799530 	 -0.547618 
-42.785560 	 -0.551387 
-43.801480 	 -0.557544 
-44.809360 	 -0.560312 
-45.846720 	 -0.564244 
-46.886340 	 -0.567827 
-47.875200 	 -0.569102 
-48.900430 	 -0.571052 
-49.891100 	 -0.573280 
-50.864800 	 -0.575971 
-51.857000 	 -0.577291 
-52.833810 	 -0.582164 
-53.843610 	 -0.583686 
-54.859310 	 -0.586117 
-55.853220 	 -0.587360 
-56.860520 	 -0.587884 
-57.850750 	 -0.591083 
-58.852120 	 -0.594165 
-59.863280 	 -0.600728 
-60.834900 	 -0.604498 
-61.857480 	 -0.611726 
-62.859270 	 -0.617548 
-63.848140 	 -0.620645 
-64.863750 	 -0.625042 
-65.827860 	 -0.628028 
-66.817890 	 -0.631054 
-67.835000 	 -0.636508 
-68.846240 	 -0.642839 
-69.870970 	 -0.646938 
-70.877040 	 -0.652525 
-71.852970 	 -0.656150 
-72.853320 	 -0.660242 
-73.844770 	 -0.664379 
-74.826280 	 -0.668434 
-75.832820 	 -0.675472 
-76.821870 	 -0.681811 
-77.803770 	 -0.688210 
-78.820110 	 -0.697116 
-79.832980 	 -0.703772 
-80.825670 	 -0.711509 
-81.840100 	 -0.719806 
-82.835420 	 -0.726077 
-83.826190 	 -0.732083 
-84.835140 	 -0.738216 
-85.827840 	 -0.744941 
-86.831460 	 -0.751898 
-87.830700 	 -0.759808 
-88.833500 	 -0.769448 
-89.831020 	 -0.777754 
-90.820620 	 -0.784227 
-91.823240 	 -0.794028 
-92.817160 	 -0.799899 
-93.813640 	 -0.807548 
-94.815680 	 -0.819193 
-95.795330 	 -0.828575 
-96.797580 	 -0.839970 
-97.796630 	 -0.851939 
