WE1 Volts(mV)    WE1 Idir (uA) 
-100.411600 	 -1.055665 
-100.161600 	 -1.028811 
-99.679890 	 -0.991932 
-98.963870 	 -0.941641 
-97.966490 	 -0.886455 
-96.967580 	 -0.855214 
-95.963580 	 -0.832490 
-94.953620 	 -0.829476 
-93.955070 	 -0.800372 
-92.954060 	 -0.776442 
-91.962940 	 -0.753417 
-90.967070 	 -0.716200 
-89.974910 	 -0.703662 
-89.009930 	 -0.688515 
-88.008030 	 -0.671934 
-86.987460 	 -0.653963 
-85.982850 	 -0.636885 
-84.965230 	 -0.621727 
-83.970270 	 -0.602214 
-82.986840 	 -0.591596 
-82.001310 	 -0.578290 
-81.006410 	 -0.565105 
-80.003660 	 -0.546188 
-78.996350 	 -0.526898 
-77.972560 	 -0.505068 
-76.979680 	 -0.481558 
-75.983190 	 -0.466134 
-74.973900 	 -0.445819 
-73.983360 	 -0.434423 
-72.978090 	 -0.419957 
-71.969700 	 -0.410206 
-70.996850 	 -0.403826 
-69.996560 	 -0.389667 
-69.013960 	 -0.377963 
-68.020140 	 -0.374176 
-67.006780 	 -0.346357 
-66.035390 	 -0.372837 
-65.026730 	 -0.379297 
-64.029170 	 -0.365675 
-63.046450 	 -0.379285 
-62.029360 	 -0.322424 
-61.008440 	 -0.295081 
-60.002870 	 -0.282366 
-58.999240 	 -0.270817 
-57.998830 	 -0.290114 
-57.007120 	 -0.276847 
-55.995150 	 -0.263403 
-54.966710 	 -0.238778 
-53.963280 	 -0.204795 
-52.952700 	 -0.195125 
-51.961660 	 -0.175740 
-50.973400 	 -0.182127 
-49.971310 	 -0.190447 
-49.001590 	 -0.185993 
-48.005420 	 -0.185379 
-47.028200 	 -0.170708 
-46.038060 	 -0.155771 
-45.038090 	 -0.151471 
-44.047430 	 -0.142936 
-43.030820 	 -0.132954 
-42.019230 	 -0.123460 
-40.992240 	 -0.112959 
-39.975800 	 -0.102782 
-38.959010 	 -0.101875 
-37.960330 	 -0.097112 
-36.954120 	 -0.094977 
-35.946700 	 -0.090556 
-34.951190 	 -0.074978 
-33.959620 	 -0.066452 
-32.976330 	 -0.056968 
-31.995110 	 -0.056461 
-30.986210 	 -0.053860 
-29.984070 	 -0.044171 
-28.953190 	 -0.040283 
-27.950730 	 -0.029949 
-26.958210 	 -0.021733 
-25.971520 	 -0.014885 
-24.994490 	 -0.001886 
-23.988700 	 0.009659 
-23.000230 	 0.010026 
-21.978320 	 0.004088 
-20.964190 	 -0.001297 
-19.984180 	 -0.005427 
-18.985920 	 -0.001586 
-17.990690 	 0.007490 
-16.991990 	 0.017812 
-15.975930 	 0.021876 
-14.982500 	 0.027659 
-13.971300 	 0.028343 
-12.998430 	 0.028110 
-12.015090 	 0.034809 
-10.987270 	 0.038768 
-9.989813 	 0.058805 
-8.971172 	 0.079297 
-7.942577 	 0.081246 
-6.956363 	 0.078155 
-5.959517 	 0.073387 
-4.947018 	 0.061674 
-3.963529 	 0.073315 
-2.991019 	 0.098265 
-2.018640 	 0.094951 
-1.062426 	 0.104029 
-0.077533 	 0.093927 
0.934900 	 0.083638 
1.940513 	 0.092930 
2.922121 	 0.091960 
3.915731 	 0.099076 
4.894499 	 0.108338 
5.876519 	 0.110607 
6.879805 	 0.128521 
7.894367 	 0.139404 
8.886028 	 0.133686 
9.889265 	 0.135699 
10.895540 	 0.116800 
11.888750 	 0.113692 
12.901430 	 0.124593 
13.882250 	 0.135141 
14.872280 	 0.140277 
15.858030 	 0.139138 
16.836940 	 0.133462 
17.866530 	 0.129695 
18.875120 	 0.137663 
19.869650 	 0.142564 
20.885630 	 0.152939 
21.884020 	 0.150484 
22.868560 	 0.146535 
23.869010 	 0.151027 
24.852500 	 0.149125 
25.835340 	 0.158239 
26.841150 	 0.159927 
27.844920 	 0.160862 
28.849330 	 0.170287 
29.848170 	 0.192904 
30.837010 	 0.205240 
31.835190 	 0.199288 
32.824840 	 0.190982 
33.830570 	 0.169410 
34.838100 	 0.159319 
35.820850 	 0.166598 
36.829710 	 0.174295 
37.821750 	 0.180118 
38.834480 	 0.197759 
39.844010 	 0.205640 
40.839100 	 0.218039 
41.830270 	 0.237526 
42.822300 	 0.238746 
43.819210 	 0.232814 
44.826410 	 0.221545 
45.821800 	 0.192363 
46.840510 	 0.172169 
47.849180 	 0.168184 
48.842610 	 0.163540 
49.870790 	 0.171278 
50.850810 	 0.185773 
51.844970 	 0.193541 
52.863670 	 0.198138 
53.841700 	 0.206520 
54.830260 	 0.207067 
55.828570 	 0.211114 
56.802970 	 0.216215 
57.807560 	 0.215342 
58.812590 	 0.222658 
59.823820 	 0.226695 
60.842130 	 0.230859 
61.827950 	 0.231382 
62.830190 	 0.235126 
63.812950 	 0.245004 
64.792170 	 0.257003 
65.806960 	 0.266415 
66.794680 	 0.260594 
67.793970 	 0.241447 
68.813670 	 0.228517 
69.822680 	 0.240704 
70.843030 	 0.260841 
71.847950 	 0.269529 
72.807360 	 0.278718 
73.801730 	 0.273808 
74.785000 	 0.282687 
75.789600 	 0.309341 
76.801510 	 0.316901 
77.784540 	 0.315671 
78.794100 	 0.311572 
79.775150 	 0.301325 
80.780790 	 0.296683 
81.799460 	 0.296866 
82.772210 	 0.291187 
83.761290 	 0.303411 
84.769980 	 0.317315 
85.761260 	 0.333276 
86.779800 	 0.345709 
87.778980 	 0.337834 
88.769760 	 0.336573 
89.761540 	 0.337039 
90.754340 	 0.344881 
91.773940 	 0.368672 
92.775740 	 0.387900 
93.771120 	 0.414072 
94.785290 	 0.419610 
95.774580 	 0.421178 
96.779140 	 0.422456 
97.818410 	 0.418614 
98.803470 	 0.442761 
99.815760 	 0.469829 
100.825900 	 0.488291 
101.787900 	 0.496541 
102.777500 	 0.485923 
103.783600 	 0.480221 
104.766700 	 0.486980 
105.778100 	 0.509602 
106.783400 	 0.536350 
107.783600 	 0.552504 
108.794800 	 0.556961 
109.792200 	 0.547000 
110.821000 	 0.548213 
111.828300 	 0.558558 
112.823300 	 0.576597 
113.832700 	 0.596379 
114.800100 	 0.611375 
115.793700 	 0.625916 
116.804400 	 0.646833 
117.781300 	 0.662406 
118.799900 	 0.674751 
119.802400 	 0.699244 
120.798300 	 0.741402 
121.814500 	 0.817836 
122.811400 	 0.909790 
123.809700 	 1.082600 
124.803300 	 1.131612 
125.807600 	 1.137369 
126.815000 	 1.127791 
127.785000 	 1.019629 
128.772500 	 1.023708 
129.776600 	 1.037902 
130.776500 	 1.066662 
131.797000 	 1.106483 
132.809400 	 1.141596 
133.797800 	 1.184906 
134.788900 	 1.222021 
135.763300 	 1.244573 
136.772600 	 1.266887 
137.770900 	 1.263526 
138.762900 	 1.258488 
139.781100 	 1.273559 
140.765200 	 1.278162 
141.764400 	 1.325290 
142.763700 	 1.354189 
143.760000 	 1.356930 
144.743600 	 1.378876 
145.738400 	 1.379325 
146.745500 	 1.385824 
147.757900 	 1.415659 
148.796500 	 1.429351 
149.792800 	 1.453999 
150.792100 	 1.488126 
151.799300 	 1.515450 
152.762800 	 1.537251 
153.756300 	 1.544467 
154.754700 	 1.551421 
155.744100 	 1.562052 
156.759600 	 1.576655 
157.755000 	 1.602977 
158.749700 	 1.627249 
159.744100 	 1.632507 
160.728800 	 1.647056 
161.750800 	 1.664876 
162.750800 	 1.678242 
163.748600 	 1.713461 
164.768900 	 1.742162 
165.755200 	 1.765481 
166.758700 	 1.795878 
167.785000 	 1.819511 
168.783800 	 1.843413 
169.810900 	 1.858441 
170.822700 	 1.872961 
171.789600 	 1.872998 
172.793000 	 1.874934 
173.779500 	 1.886577 
174.777100 	 1.896477 
175.799000 	 1.911775 
176.804300 	 1.931929 
177.796000 	 1.951923 
178.782400 	 1.970165 
179.753100 	 1.986014 
180.744800 	 2.002579 
181.739300 	 2.012900 
182.733300 	 2.018365 
183.729900 	 2.029712 
184.714600 	 2.027559 
185.717300 	 2.028836 
186.723200 	 2.036910 
187.753600 	 2.042171 
188.763500 	 2.052467 
189.766400 	 2.063661 
190.783800 	 2.074427 
191.786100 	 2.080353 
192.773000 	 2.082855 
193.775200 	 2.077428 
194.761100 	 2.070274 
195.752100 	 2.073713 
196.766600 	 2.081275 
197.772900 	 2.082946 
198.797000 	 2.093420 
199.794000 	 2.098931 
200.828000 	 2.099233 
201.817100 	 2.112020 
202.789600 	 2.114671 
203.795100 	 2.119048 
204.747000 	 2.132464 
205.746600 	 2.139050 
206.749100 	 2.145570 
207.747600 	 2.166776 
208.753100 	 2.167737 
209.758100 	 2.174807 
210.744400 	 2.178630 
211.737900 	 2.162442 
212.749700 	 2.163180 
213.732900 	 2.160498 
214.750400 	 2.160523 
215.738400 	 2.165034 
216.719800 	 2.164574 
217.731400 	 2.165267 
218.713500 	 2.160478 
219.721600 	 2.157665 
220.753500 	 2.156838 
221.744500 	 2.152270 
222.744800 	 2.154479 
223.741300 	 2.151758 
224.710200 	 2.149198 
225.722900 	 2.153109 
226.742800 	 2.152318 
227.759000 	 2.150621 
228.769200 	 2.148774 
229.749900 	 2.140551 
230.733900 	 2.134989 
231.707300 	 2.128857 
232.692200 	 2.124162 
233.701000 	 2.122675 
234.697700 	 2.116365 
235.699800 	 2.111409 
236.687900 	 2.105632 
237.686300 	 2.104596 
238.683300 	 2.108154 
239.672800 	 2.110293 
240.669400 	 2.110042 
241.651400 	 2.107414 
242.615800 	 2.102690 
243.613900 	 2.104322 
244.637100 	 2.107670 
245.651300 	 2.108429 
246.687300 	 2.111375 
247.695200 	 2.109302 
248.675600 	 2.106455 
249.661600 	 2.102206 
250.661900 	 2.100227 
251.689300 	 2.099269 
252.713600 	 2.098204 
253.711400 	 2.098687 
254.707300 	 2.100255 
255.672300 	 2.100680 
256.657200 	 2.104355 
257.688200 	 2.111524 
258.698400 	 2.112472 
259.716500 	 2.114426 
260.716700 	 2.115970 
261.692100 	 2.116924 
262.682500 	 2.117096 
263.672100 	 2.119176 
264.669000 	 2.119453 
265.674100 	 2.115650 
266.680200 	 2.116085 
267.677200 	 2.116889 
268.696000 	 2.117253 
269.695000 	 2.119815 
270.694000 	 2.123516 
271.697700 	 2.122829 
272.674600 	 2.123579 
273.677300 	 2.125912 
274.675400 	 2.120714 
275.664700 	 2.122322 
276.684900 	 2.126809 
277.697800 	 2.125463 
278.699500 	 2.128828 
279.717600 	 2.129330 
280.704600 	 2.127315 
281.671300 	 2.130930 
282.660800 	 2.133255 
283.663200 	 2.136940 
284.636400 	 2.140088 
285.636400 	 2.142875 
286.631500 	 2.150892 
287.635500 	 2.153724 
288.650300 	 2.158635 
289.677100 	 2.162278 
290.702900 	 2.161159 
291.688900 	 2.160753 
292.703300 	 2.163826 
293.681100 	 2.161670 
294.654800 	 2.163299 
295.656600 	 2.170348 
296.645800 	 2.173242 
297.663000 	 2.181803 
298.664600 	 2.190530 
299.676100 	 2.197793 
300.690600 	 2.202761 
301.694000 	 2.205507 
302.722600 	 2.208325 
303.720400 	 2.206845 
304.732900 	 2.210209 
305.743200 	 2.216671 
306.728400 	 2.220258 
307.718300 	 2.227045 
308.704300 	 2.232532 
309.694100 	 2.233902 
310.670400 	 2.235349 
311.674300 	 2.239455 
312.673900 	 2.243550 
313.668400 	 2.243925 
314.685000 	 2.248633 
315.672600 	 2.249899 
316.677200 	 2.250798 
317.674200 	 2.255122 
318.681800 	 2.260362 
319.688600 	 2.265618 
320.667100 	 2.273261 
321.666400 	 2.284824 
322.646700 	 2.290804 
323.633500 	 2.297391 
324.627100 	 2.295528 
325.608900 	 2.295678 
326.621000 	 2.300236 
327.656600 	 2.307891 
328.682200 	 2.319428 
329.692200 	 2.330842 
330.703100 	 2.338992 
331.679000 	 2.344327 
332.671100 	 2.350560 
333.665100 	 2.355749 
334.634200 	 2.363832 
335.622300 	 2.370849 
336.634500 	 2.379149 
337.647200 	 2.389790 
338.659100 	 2.395562 
339.670300 	 2.401625 
340.661400 	 2.410407 
341.659400 	 2.413733 
342.655500 	 2.419446 
343.651800 	 2.424696 
344.637500 	 2.428729 
345.629100 	 2.436098 
346.622800 	 2.446002 
347.633700 	 2.458213 
348.641600 	 2.465943 
349.663000 	 2.472279 
350.699400 	 2.480403 
351.704900 	 2.484963 
352.707600 	 2.492950 
353.725000 	 2.501578 
354.710100 	 2.505999 
355.701500 	 2.511023 
356.709700 	 2.519037 
357.676600 	 2.528314 
358.653800 	 2.537178 
359.650600 	 2.545820 
360.635500 	 2.553353 
361.642500 	 2.560580 
362.673700 	 2.569538 
363.684400 	 2.581290 
364.689100 	 2.589145 
365.688000 	 2.598278 
366.693200 	 2.610161 
367.696900 	 2.622311 
368.703800 	 2.634024 
369.714200 	 2.647252 
370.682100 	 2.650908 
371.644800 	 2.657266 
372.638600 	 2.665328 
373.639300 	 2.670969 
374.641200 	 2.682420 
375.652700 	 2.692350 
376.643900 	 2.704790 
377.628900 	 2.715151 
378.639200 	 2.727254 
379.660700 	 2.738615 
380.675800 	 2.748699 
381.683200 	 2.756041 
382.689400 	 2.768491 
383.672200 	 2.781102 
384.672700 	 2.790440 
385.661600 	 2.804737 
386.639000 	 2.815132 
387.640900 	 2.824709 
388.651400 	 2.839117 
389.659000 	 2.849956 
390.669100 	 2.859061 
391.679800 	 2.870120 
392.655900 	 2.880192 
393.661900 	 2.894243 
394.663200 	 2.905527 
395.652700 	 2.916533 
396.659700 	 2.930020 
397.641600 	 2.944786 
398.189100 	 2.890034 
398.223500 	 2.793843 
397.763700 	 2.661974 
396.811500 	 2.503950 
395.800800 	 2.391184 
394.814100 	 2.297161 
393.806000 	 2.212548 
392.800800 	 2.131144 
391.832400 	 2.060176 
390.823300 	 1.991693 
389.839300 	 1.930614 
388.849100 	 1.877208 
387.821600 	 1.818863 
386.821600 	 1.771444 
385.808500 	 1.725634 
384.800400 	 1.684495 
383.785500 	 1.652148 
382.791800 	 1.617843 
381.800000 	 1.587271 
380.823300 	 1.555140 
379.848400 	 1.525755 
378.842800 	 1.497995 
377.830100 	 1.467833 
376.810300 	 1.438617 
375.807300 	 1.412950 
374.806600 	 1.385192 
373.812000 	 1.362488 
372.816500 	 1.342429 
371.813300 	 1.317737 
370.830500 	 1.298260 
369.854400 	 1.278939 
368.847700 	 1.256370 
367.859900 	 1.238700 
366.851000 	 1.219806 
365.823000 	 1.198628 
364.812700 	 1.181149 
363.785600 	 1.166162 
362.786600 	 1.151266 
361.781400 	 1.139895 
360.786300 	 1.128554 
359.822300 	 1.116238 
358.817700 	 1.102069 
357.841400 	 1.088045 
356.871900 	 1.072568 
355.851400 	 1.056334 
354.856200 	 1.042172 
353.852700 	 1.030302 
352.831700 	 1.018337 
351.824200 	 1.008850 
350.806400 	 1.000699 
349.805000 	 0.990914 
348.810800 	 0.982786 
347.818700 	 0.973364 
346.828400 	 0.964085 
345.815100 	 0.952801 
344.803400 	 0.943465 
343.800700 	 0.935591 
342.797400 	 0.926417 
341.798200 	 0.919338 
340.813200 	 0.911928 
339.811100 	 0.901450 
338.818100 	 0.891958 
337.836200 	 0.883781 
336.828600 	 0.875683 
335.818500 	 0.867748 
334.808700 	 0.860595 
333.808700 	 0.853696 
332.817400 	 0.847528 
331.819800 	 0.843754 
330.848200 	 0.840231 
329.843000 	 0.834979 
328.825600 	 0.829523 
327.853200 	 0.822918 
326.847400 	 0.816194 
325.835300 	 0.811941 
324.847000 	 0.807349 
323.831100 	 0.802771 
322.807800 	 0.799049 
321.822000 	 0.792795 
320.829000 	 0.785327 
319.842200 	 0.780813 
318.868400 	 0.775406 
317.870800 	 0.769854 
316.864500 	 0.764848 
315.855300 	 0.756800 
314.847000 	 0.751019 
313.826500 	 0.746417 
312.815700 	 0.741973 
311.824200 	 0.739971 
310.814700 	 0.735818 
309.831600 	 0.732255 
308.839200 	 0.729331 
307.838000 	 0.723793 
306.854600 	 0.719175 
305.855200 	 0.716313 
304.873500 	 0.712155 
303.864400 	 0.709680 
302.861900 	 0.704697 
301.850700 	 0.700280 
300.832700 	 0.696301 
299.827500 	 0.691222 
298.842700 	 0.688282 
297.850400 	 0.681409 
296.823100 	 0.675859 
295.823600 	 0.670960 
294.802800 	 0.665842 
293.795700 	 0.661771 
292.835600 	 0.659226 
291.843400 	 0.655641 
290.836500 	 0.654226 
289.836600 	 0.651497 
288.814200 	 0.645732 
287.792400 	 0.643561 
286.805000 	 0.639226 
285.812900 	 0.638050 
284.808200 	 0.637983 
283.813200 	 0.635973 
282.798200 	 0.634952 
281.797100 	 0.631138 
280.808200 	 0.626153 
279.852200 	 0.621482 
278.868500 	 0.616777 
277.876500 	 0.611009 
276.889600 	 0.608669 
275.855800 	 0.603893 
274.843800 	 0.598863 
273.832000 	 0.595697 
272.802800 	 0.589026 
271.798200 	 0.586494 
270.793800 	 0.584057 
269.792400 	 0.581441 
268.838000 	 0.581376 
267.872700 	 0.577289 
266.862900 	 0.573815 
265.858200 	 0.567678 
264.830100 	 0.561518 
263.808400 	 0.558102 
262.820600 	 0.553564 
261.838000 	 0.550566 
260.849600 	 0.546849 
259.837500 	 0.540753 
258.849700 	 0.532668 
257.851100 	 0.527844 
256.842800 	 0.521629 
255.853900 	 0.516194 
254.865900 	 0.512320 
253.872800 	 0.508149 
252.879300 	 0.502411 
251.881000 	 0.497885 
250.862300 	 0.495286 
249.829800 	 0.486668 
248.808900 	 0.481042 
247.805500 	 0.477689 
246.801300 	 0.469276 
245.824900 	 0.466154 
244.831400 	 0.462477 
243.822900 	 0.454876 
242.812500 	 0.450989 
241.809600 	 0.447283 
240.818500 	 0.439816 
239.819400 	 0.435062 
238.834800 	 0.425947 
237.828500 	 0.417983 
236.825300 	 0.408700 
235.843600 	 0.396817 
234.839500 	 0.392805 
233.851700 	 0.388660 
232.870500 	 0.385318 
231.880800 	 0.383606 
230.894700 	 0.377734 
229.899000 	 0.369162 
228.896000 	 0.364423 
227.889100 	 0.355430 
226.892300 	 0.345608 
225.894900 	 0.338447 
224.894400 	 0.328638 
223.887100 	 0.322099 
222.882200 	 0.314833 
221.883400 	 0.303637 
220.875400 	 0.291943 
219.868300 	 0.281613 
218.853200 	 0.271296 
217.859600 	 0.261313 
216.871300 	 0.254438 
215.897600 	 0.246482 
214.913500 	 0.237213 
213.893500 	 0.228094 
212.892200 	 0.217064 
211.885300 	 0.201456 
210.887800 	 0.186124 
209.907000 	 0.174779 
208.900200 	 0.162011 
207.899200 	 0.150330 
206.916800 	 0.140708 
205.920400 	 0.130395 
204.934400 	 0.116495 
203.950500 	 0.106776 
202.952800 	 0.095314 
201.949600 	 0.078624 
200.943200 	 0.067213 
199.945100 	 0.053490 
198.935800 	 0.039504 
197.932500 	 0.028756 
196.937700 	 0.020126 
195.925700 	 0.010568 
194.911300 	 -0.000003 
193.886400 	 -0.011441 
192.883900 	 -0.026441 
191.887500 	 -0.043118 
190.913700 	 -0.057728 
189.931100 	 -0.072523 
188.922900 	 -0.089100 
187.904200 	 -0.106061 
186.877900 	 -0.119530 
185.857100 	 -0.134667 
184.849100 	 -0.145739 
183.852000 	 -0.154519 
182.862000 	 -0.169338 
181.900100 	 -0.183073 
180.923800 	 -0.198461 
179.923800 	 -0.215896 
178.925700 	 -0.229699 
177.925300 	 -0.240408 
176.919600 	 -0.254380 
175.918700 	 -0.263067 
174.912900 	 -0.275910 
173.905900 	 -0.293834 
172.887500 	 -0.307640 
171.892700 	 -0.326338 
170.897300 	 -0.344097 
169.880900 	 -0.361072 
168.877200 	 -0.379891 
167.878900 	 -0.395167 
166.874100 	 -0.409475 
165.890600 	 -0.422170 
164.915400 	 -0.429909 
163.919300 	 -0.445644 
162.913700 	 -0.461272 
161.919600 	 -0.477310 
160.891600 	 -0.499857 
159.905700 	 -0.512403 
158.917400 	 -0.524491 
157.900200 	 -0.537987 
156.924700 	 -0.545644 
155.933100 	 -0.556193 
154.929200 	 -0.567704 
153.948000 	 -0.577485 
152.939400 	 -0.594550 
151.929500 	 -0.608167 
150.937700 	 -0.628572 
149.922300 	 -0.648676 
148.952300 	 -0.660882 
147.926900 	 -0.677897 
146.925000 	 -0.686863 
145.920200 	 -0.691942 
144.897400 	 -0.701383 
143.892400 	 -0.710052 
142.879000 	 -0.722760 
141.880200 	 -0.738559 
140.865900 	 -0.753932 
139.890900 	 -0.767400 
138.892400 	 -0.774143 
137.906700 	 -0.784139 
136.921300 	 -0.791766 
135.925100 	 -0.801428 
134.922600 	 -0.812611 
133.903400 	 -0.823468 
132.907600 	 -0.832153 
131.889000 	 -0.844455 
130.892400 	 -0.855113 
129.899500 	 -0.863900 
128.873300 	 -0.874795 
127.876800 	 -0.881941 
126.898400 	 -0.888992 
125.909800 	 -0.895134 
124.950900 	 -0.900774 
123.955200 	 -0.905936 
122.946400 	 -0.909235 
121.945900 	 -0.913832 
120.915500 	 -0.918569 
119.931000 	 -0.922064 
118.933300 	 -0.930722 
117.912700 	 -0.936167 
116.932200 	 -0.940844 
115.924500 	 -0.946902 
114.920700 	 -0.950385 
113.976400 	 -0.953029 
112.988900 	 -0.956304 
111.986500 	 -0.959365 
110.989900 	 -0.960907 
109.953600 	 -0.965209 
108.942700 	 -0.968480 
107.933000 	 -0.970382 
106.947900 	 -0.972255 
105.980700 	 -0.971190 
104.988500 	 -0.972575 
104.018500 	 -0.973202 
103.018400 	 -0.975543 
102.016200 	 -0.980385 
101.012400 	 -0.981678 
99.984200 	 -0.984543 
98.993560 	 -0.986934 
97.962310 	 -0.986992 
96.937190 	 -0.988715 
95.965870 	 -0.987843 
94.951030 	 -0.986865 
93.930080 	 -0.987167 
92.939070 	 -0.985752 
91.901900 	 -0.986287 
90.893620 	 -0.984091 
89.909380 	 -0.982814 
88.915650 	 -0.980840 
87.946020 	 -0.980428 
86.937160 	 -0.979334 
85.933430 	 -0.977552 
84.920560 	 -0.976724 
83.889810 	 -0.970902 
82.873020 	 -0.970740 
81.877590 	 -0.969180 
80.889830 	 -0.968310 
79.893100 	 -0.968247 
78.907890 	 -0.964426 
77.919040 	 -0.961571 
76.914000 	 -0.958408 
75.918290 	 -0.956168 
74.926570 	 -0.954748 
73.943920 	 -0.952339 
72.956080 	 -0.951422 
71.976750 	 -0.949802 
70.965180 	 -0.949346 
69.949860 	 -0.948035 
68.955930 	 -0.943249 
67.934420 	 -0.941080 
66.934400 	 -0.935827 
65.941730 	 -0.932404 
64.926260 	 -0.933157 
63.959850 	 -0.930748 
62.982270 	 -0.931185 
61.975380 	 -0.931183 
60.993430 	 -0.929836 
59.980020 	 -0.927676 
58.991930 	 -0.922878 
57.996200 	 -0.920594 
56.983130 	 -0.915860 
56.001240 	 -0.912444 
54.996700 	 -0.911704 
53.994270 	 -0.908961 
53.004910 	 -0.906845 
51.991910 	 -0.905999 
50.981210 	 -0.906984 
49.988940 	 -0.905844 
48.993940 	 -0.906545 
47.987400 	 -0.905621 
47.000360 	 -0.898965 
46.003190 	 -0.894787 
45.006340 	 -0.890588 
44.028280 	 -0.886878 
43.013690 	 -0.886992 
42.014450 	 -0.886084 
40.999950 	 -0.886921 
39.971270 	 -0.888628 
38.975890 	 -0.892551 
37.967770 	 -0.895732 
36.975590 	 -0.895487 
35.991970 	 -0.896957 
34.996270 	 -0.893922 
33.975050 	 -0.891641 
32.973880 	 -0.890767 
31.982960 	 -0.886166 
30.963560 	 -0.883987 
29.982150 	 -0.881558 
28.983310 	 -0.877976 
27.961320 	 -0.875318 
26.990870 	 -0.871395 
25.996570 	 -0.870460 
24.988460 	 -0.871523 
24.000490 	 -0.872434 
22.990180 	 -0.875520 
21.984550 	 -0.875106 
20.995890 	 -0.876273 
19.988460 	 -0.877047 
18.989810 	 -0.873351 
17.993510 	 -0.871178 
16.976360 	 -0.869397 
15.989220 	 -0.866432 
14.979940 	 -0.866258 
13.996250 	 -0.867385 
13.024980 	 -0.863435 
12.020620 	 -0.862159 
11.042150 	 -0.861448 
10.037940 	 -0.858545 
9.037248 	 -0.858751 
8.046593 	 -0.858748 
7.050324 	 -0.858823 
6.057687 	 -0.858447 
5.067940 	 -0.857246 
4.058232 	 -0.856636 
3.057621 	 -0.855799 
2.072035 	 -0.856135 
1.061435 	 -0.859016 
0.070631 	 -0.861111 
-0.920552 	 -0.861495 
-1.923557 	 -0.861015 
-2.888324 	 -0.861254 
-3.846850 	 -0.862407 
-4.806003 	 -0.862785 
-5.803229 	 -0.867854 
-6.802899 	 -0.868393 
-7.806746 	 -0.868521 
-8.825254 	 -0.870859 
-9.812855 	 -0.870685 
-10.814820 	 -0.869184 
-11.818400 	 -0.873191 
-12.831790 	 -0.875096 
-13.821000 	 -0.874841 
-14.818880 	 -0.879443 
-15.830010 	 -0.879889 
-16.814490 	 -0.880139 
-17.813830 	 -0.884817 
-18.843980 	 -0.886456 
-19.843090 	 -0.889031 
-20.874210 	 -0.890956 
-21.915700 	 -0.892937 
-22.909470 	 -0.893934 
-23.899240 	 -0.891197 
-24.886240 	 -0.892326 
-25.865670 	 -0.890982 
-26.819890 	 -0.890068 
-27.814240 	 -0.893558 
-28.816440 	 -0.899441 
-29.805430 	 -0.901454 
-30.830420 	 -0.910922 
-31.856860 	 -0.916088 
-32.836560 	 -0.918119 
-33.834080 	 -0.924405 
-34.836850 	 -0.924463 
-35.825060 	 -0.928376 
-36.844260 	 -0.929605 
-37.861330 	 -0.931276 
-38.865460 	 -0.936351 
-39.863190 	 -0.939855 
-40.863110 	 -0.947076 
-41.853680 	 -0.954110 
-42.858440 	 -0.957361 
-43.865210 	 -0.960947 
-44.848320 	 -0.965224 
-45.856820 	 -0.968810 
-46.860200 	 -0.975783 
-47.850750 	 -0.984363 
-48.866870 	 -0.991883 
-49.842970 	 -0.998989 
-50.825910 	 -1.005875 
-51.825270 	 -1.011252 
-52.815750 	 -1.014261 
-53.815080 	 -1.018633 
-54.808070 	 -1.022452 
-55.809420 	 -1.031176 
-56.813960 	 -1.038940 
-57.839010 	 -1.047531 
-58.844290 	 -1.057530 
-59.852840 	 -1.063706 
-60.847710 	 -1.073331 
-61.840860 	 -1.082293 
-62.868360 	 -1.091153 
-63.895050 	 -1.099376 
-64.885810 	 -1.107694 
-65.885200 	 -1.117294 
-66.874770 	 -1.126043 
-67.838080 	 -1.136844 
-68.859150 	 -1.145838 
-69.858870 	 -1.155189 
-70.867780 	 -1.163684 
-71.870640 	 -1.172902 
-72.875760 	 -1.182843 
-73.872510 	 -1.191975 
-74.852390 	 -1.199521 
-75.855870 	 -1.210168 
-76.832210 	 -1.222425 
-77.815030 	 -1.234966 
-78.813230 	 -1.252058 
-79.805270 	 -1.263844 
-80.817260 	 -1.276061 
-81.845510 	 -1.289189 
-82.864120 	 -1.299339 
-83.849410 	 -1.309011 
-84.838620 	 -1.322836 
-85.806830 	 -1.335963 
-86.807080 	 -1.350712 
-87.844640 	 -1.365860 
-88.836350 	 -1.381984 
-89.854690 	 -1.395280 
-90.825490 	 -1.408121 
-91.810480 	 -1.424940 
-92.830420 	 -1.438159 
-93.842760 	 -1.451957 
-94.858920 	 -1.469608 
-95.859830 	 -1.483707 
-96.842590 	 -1.498222 
-97.820650 	 -1.514958 
