WE1 Volts(mV)    WE1 Idir (uA) 
-100.341700 	 -0.511178 
-100.121600 	 -0.499958 
-99.655530 	 -0.483436 
-98.925900 	 -0.465157 
-97.963960 	 -0.438888 
-96.970980 	 -0.419699 
-95.958680 	 -0.401927 
-94.960940 	 -0.382376 
-93.937810 	 -0.366810 
-92.931950 	 -0.353567 
-91.955930 	 -0.340227 
-90.958470 	 -0.327954 
-89.982380 	 -0.318528 
-88.981250 	 -0.308767 
-87.971120 	 -0.300892 
-86.991830 	 -0.294917 
-85.986610 	 -0.286223 
-85.002040 	 -0.276336 
-84.013930 	 -0.266734 
-83.013170 	 -0.256033 
-82.003330 	 -0.244914 
-80.969830 	 -0.235359 
-79.955060 	 -0.229460 
-78.961590 	 -0.221391 
-77.964710 	 -0.216254 
-76.991560 	 -0.211994 
-76.007150 	 -0.203209 
-74.991420 	 -0.195466 
-73.996950 	 -0.189097 
-73.008680 	 -0.182693 
-71.987240 	 -0.173913 
-70.986740 	 -0.171052 
-69.980470 	 -0.164835 
-68.953010 	 -0.158379 
-67.960230 	 -0.156091 
-66.960360 	 -0.150892 
-65.975010 	 -0.147348 
-64.987050 	 -0.141375 
-63.989450 	 -0.135332 
-63.007910 	 -0.129142 
-61.989700 	 -0.118581 
-60.988860 	 -0.114835 
-60.000410 	 -0.110695 
-58.961360 	 -0.103001 
-57.960660 	 -0.102439 
-56.942020 	 -0.097083 
-55.908420 	 -0.090956 
-54.920730 	 -0.087315 
-53.909930 	 -0.081415 
-52.941360 	 -0.075723 
-51.950070 	 -0.072425 
-50.959480 	 -0.068872 
-49.985740 	 -0.065023 
-48.941420 	 -0.064705 
-47.939670 	 -0.061646 
-46.965230 	 -0.056502 
-45.962510 	 -0.049443 
-45.011190 	 -0.043287 
-44.015910 	 -0.038300 
-42.980570 	 -0.035508 
-41.970440 	 -0.035057 
-40.955880 	 -0.031276 
-39.971420 	 -0.027512 
-38.971060 	 -0.027238 
-37.978490 	 -0.025019 
-36.982470 	 -0.023104 
-35.994910 	 -0.020299 
-34.986580 	 -0.014303 
-34.011440 	 -0.010968 
-33.007680 	 -0.007307 
-31.973300 	 -0.004926 
-30.977080 	 -0.003808 
-29.941010 	 -0.002696 
-28.930110 	 0.000273 
-27.941210 	 0.000753 
-26.944290 	 0.003391 
-25.956350 	 0.007064 
-24.967180 	 0.009615 
-23.993230 	 0.014134 
-23.021840 	 0.015944 
-22.020420 	 0.017919 
-21.015370 	 0.019609 
-19.991050 	 0.023546 
-18.965080 	 0.025960 
-17.978670 	 0.026674 
-16.973090 	 0.026913 
-15.975830 	 0.025697 
-14.990470 	 0.028863 
-13.971040 	 0.030193 
-12.991840 	 0.033065 
-11.982040 	 0.037230 
-10.971870 	 0.039935 
-9.977992 	 0.044524 
-8.953176 	 0.045949 
-7.946704 	 0.047100 
-6.948604 	 0.047894 
-5.946952 	 0.048849 
-4.961349 	 0.051033 
-3.991299 	 0.049553 
-2.995195 	 0.048348 
-2.011425 	 0.050592 
-1.051001 	 0.053749 
-0.067263 	 0.057538 
0.886739 	 0.061752 
1.875941 	 0.063822 
2.877031 	 0.063033 
3.867851 	 0.065204 
4.859893 	 0.068011 
5.840576 	 0.068862 
6.834830 	 0.071209 
7.831165 	 0.070833 
8.845248 	 0.070766 
9.848204 	 0.072157 
10.858520 	 0.075890 
11.864780 	 0.079147 
12.866890 	 0.083339 
13.879720 	 0.083481 
14.878530 	 0.084465 
15.862670 	 0.085714 
16.842160 	 0.084715 
17.841370 	 0.086795 
18.826570 	 0.085425 
19.839860 	 0.085144 
20.865310 	 0.082855 
21.859300 	 0.083605 
22.872950 	 0.085782 
23.872230 	 0.086178 
24.866330 	 0.089033 
25.856090 	 0.090622 
26.848100 	 0.092264 
27.842310 	 0.099369 
28.822180 	 0.103489 
29.822500 	 0.102035 
30.832450 	 0.100258 
31.813630 	 0.095790 
32.837800 	 0.099977 
33.856080 	 0.108112 
34.848880 	 0.113697 
35.874420 	 0.114220 
36.876120 	 0.109005 
37.861630 	 0.104954 
38.868400 	 0.103971 
39.859650 	 0.107607 
40.850960 	 0.113881 
41.859300 	 0.117660 
42.838860 	 0.118888 
43.843530 	 0.120953 
44.842880 	 0.120619 
45.839720 	 0.122784 
46.877390 	 0.125607 
47.884130 	 0.125984 
48.880180 	 0.127346 
49.883060 	 0.128553 
50.849190 	 0.128647 
51.840260 	 0.127675 
52.835340 	 0.128016 
53.835700 	 0.127262 
54.828080 	 0.129154 
55.830410 	 0.134414 
56.844930 	 0.137084 
57.819340 	 0.141051 
58.836510 	 0.142929 
59.826630 	 0.141422 
60.807470 	 0.140921 
61.808500 	 0.141697 
62.796530 	 0.145333 
63.789890 	 0.153128 
64.817440 	 0.156462 
65.844160 	 0.158526 
66.830660 	 0.157524 
67.821040 	 0.155983 
68.806930 	 0.162757 
69.786420 	 0.169643 
70.795810 	 0.176706 
71.808280 	 0.179064 
72.808300 	 0.178775 
73.806100 	 0.180987 
74.814410 	 0.186641 
75.820370 	 0.195949 
76.821370 	 0.199785 
77.800000 	 0.195923 
78.789250 	 0.193866 
79.783420 	 0.194394 
80.763210 	 0.198834 
81.790310 	 0.209737 
82.798100 	 0.211090 
83.786740 	 0.213853 
84.813340 	 0.215690 
85.818550 	 0.218608 
86.821380 	 0.228189 
87.832200 	 0.230063 
88.811120 	 0.234543 
89.789190 	 0.237566 
90.768740 	 0.239067 
91.774410 	 0.248387 
92.765400 	 0.255663 
93.786180 	 0.261742 
94.813510 	 0.271018 
95.807430 	 0.275470 
96.837680 	 0.280445 
97.845180 	 0.286590 
98.853140 	 0.290464 
99.855000 	 0.295785 
100.837400 	 0.300459 
101.821700 	 0.306132 
102.801500 	 0.315522 
103.816800 	 0.321508 
104.825700 	 0.327312 
105.821700 	 0.332579 
106.825400 	 0.337056 
107.796700 	 0.345628 
108.771600 	 0.355265 
109.779300 	 0.360466 
110.796500 	 0.366198 
111.816800 	 0.370565 
112.842700 	 0.376617 
113.839300 	 0.387614 
114.821000 	 0.394702 
115.798900 	 0.403299 
116.797100 	 0.413559 
117.785200 	 0.422060 
118.779800 	 0.434053 
119.794600 	 0.442615 
120.779100 	 0.450139 
121.778700 	 0.458603 
122.779800 	 0.465924 
123.781700 	 0.476913 
124.777700 	 0.485675 
125.786700 	 0.495829 
126.793800 	 0.504165 
127.765400 	 0.513261 
128.763300 	 0.523406 
129.754500 	 0.535081 
130.733300 	 0.547203 
131.754300 	 0.556864 
132.769300 	 0.566621 
133.773800 	 0.573121 
134.789900 	 0.578088 
135.784200 	 0.583018 
136.777700 	 0.591078 
137.757600 	 0.600973 
138.737900 	 0.614065 
139.727400 	 0.628889 
140.707600 	 0.641928 
141.743300 	 0.657088 
142.766700 	 0.675133 
143.799400 	 0.691251 
144.804900 	 0.704983 
145.801100 	 0.718524 
146.787000 	 0.727419 
147.774500 	 0.739400 
148.794200 	 0.753184 
149.794700 	 0.763341 
150.811600 	 0.774673 
151.820000 	 0.787006 
152.817900 	 0.799600 
153.806100 	 0.815163 
154.780800 	 0.833833 
155.760700 	 0.850793 
156.759500 	 0.865191 
157.750200 	 0.878288 
158.745200 	 0.890523 
159.738500 	 0.902342 
160.740100 	 0.917063 
161.764800 	 0.930845 
162.784800 	 0.942497 
163.794900 	 0.955243 
164.779000 	 0.969241 
165.740000 	 0.982561 
166.740100 	 0.997302 
167.742800 	 1.013225 
168.760600 	 1.028411 
169.755400 	 1.043257 
170.744400 	 1.058962 
171.747900 	 1.072295 
172.735100 	 1.087809 
173.775100 	 1.106979 
174.794500 	 1.125847 
175.794500 	 1.146671 
176.813500 	 1.161466 
177.798800 	 1.172607 
178.789700 	 1.181906 
179.779600 	 1.192046 
180.759700 	 1.206902 
181.779400 	 1.222970 
182.790000 	 1.236999 
183.802900 	 1.249719 
184.800200 	 1.258592 
185.779000 	 1.268849 
186.781600 	 1.282191 
187.778500 	 1.299435 
188.792700 	 1.315952 
189.775500 	 1.330634 
190.774200 	 1.345482 
191.785200 	 1.360404 
192.792900 	 1.378838 
193.822900 	 1.397368 
194.808300 	 1.412123 
195.790500 	 1.423741 
196.790200 	 1.432597 
197.794400 	 1.446048 
198.807100 	 1.466097 
199.811400 	 1.483959 
200.794500 	 1.501682 
201.780500 	 1.511770 
202.763900 	 1.516585 
203.768600 	 1.524670 
204.791200 	 1.537497 
205.800400 	 1.555305 
206.811600 	 1.574017 
207.805000 	 1.589460 
208.776400 	 1.599531 
209.764700 	 1.611765 
210.760200 	 1.621920 
211.753000 	 1.635678 
212.794800 	 1.649871 
213.795100 	 1.664120 
214.777500 	 1.675758 
215.792100 	 1.676210 
216.747600 	 1.677925 
217.731500 	 1.679580 
218.749500 	 1.689362 
219.733600 	 1.708003 
220.746000 	 1.722687 
221.745700 	 1.730985 
222.744400 	 1.737397 
223.755200 	 1.743335 
224.743000 	 1.754336 
225.752600 	 1.764615 
226.762800 	 1.765841 
227.732800 	 1.765788 
228.743900 	 1.762920 
229.727000 	 1.765652 
230.698100 	 1.775500 
231.726100 	 1.784388 
232.725300 	 1.792860 
233.749500 	 1.792049 
234.753500 	 1.791688 
235.735100 	 1.795751 
236.734100 	 1.796458 
237.718000 	 1.802185 
238.724200 	 1.805791 
239.725100 	 1.797708 
240.700600 	 1.793648 
241.716500 	 1.790877 
242.723700 	 1.791553 
243.752700 	 1.796819 
244.781600 	 1.801766 
245.761700 	 1.799884 
246.740600 	 1.788524 
247.704200 	 1.778806 
248.672900 	 1.768887 
249.675200 	 1.763647 
250.692200 	 1.763094 
251.700900 	 1.764265 
252.720300 	 1.760885 
253.725300 	 1.751830 
254.737700 	 1.740999 
255.753100 	 1.732654 
256.758700 	 1.727123 
257.752800 	 1.724611 
258.732300 	 1.723295 
259.723800 	 1.714194 
260.716900 	 1.706807 
261.716300 	 1.703586 
262.719400 	 1.700361 
263.726400 	 1.698231 
264.729300 	 1.693287 
265.745800 	 1.683520 
266.726800 	 1.673660 
267.717900 	 1.666506 
268.705400 	 1.658915 
269.674000 	 1.654445 
270.689500 	 1.642192 
271.683800 	 1.631708 
272.698400 	 1.624550 
273.720600 	 1.616593 
274.719300 	 1.614775 
275.729100 	 1.605926 
276.748400 	 1.595948 
277.743200 	 1.586081 
278.750300 	 1.576832 
279.750900 	 1.571352 
280.704900 	 1.564192 
281.694500 	 1.555212 
282.693000 	 1.545479 
283.687800 	 1.536909 
284.714500 	 1.530922 
285.725900 	 1.529227 
286.727700 	 1.530241 
287.704500 	 1.525339 
288.680300 	 1.515991 
289.684000 	 1.507305 
290.665600 	 1.498456 
291.695100 	 1.499357 
292.710800 	 1.504250 
293.695500 	 1.502603 
294.698000 	 1.499906 
295.679900 	 1.491351 
296.704400 	 1.485805 
297.725600 	 1.482173 
298.725000 	 1.477693 
299.756900 	 1.473586 
300.723300 	 1.461405 
301.734000 	 1.453014 
302.754300 	 1.446934 
303.742400 	 1.441305 
304.761000 	 1.438685 
305.742100 	 1.436304 
306.728800 	 1.432712 
307.697500 	 1.430153 
308.675500 	 1.429249 
309.654000 	 1.427708 
310.640100 	 1.426101 
311.654800 	 1.422201 
312.651500 	 1.416973 
313.652500 	 1.411727 
314.657600 	 1.407141 
315.652300 	 1.406152 
316.658500 	 1.407414 
317.676900 	 1.405891 
318.666600 	 1.404400 
319.663500 	 1.397872 
320.658300 	 1.392324 
321.664700 	 1.389521 
322.674100 	 1.388423 
323.683700 	 1.393263 
324.699100 	 1.394495 
325.674700 	 1.392885 
326.695200 	 1.390618 
327.689400 	 1.384951 
328.687300 	 1.381627 
329.715500 	 1.379420 
330.676000 	 1.377062 
331.678400 	 1.376215 
332.671300 	 1.374625 
333.660800 	 1.372018 
334.692600 	 1.372202 
335.711800 	 1.372742 
336.717900 	 1.372520 
337.724900 	 1.373435 
338.723900 	 1.373074 
339.714800 	 1.375034 
340.721500 	 1.377905 
341.719700 	 1.382785 
342.717700 	 1.386622 
343.719900 	 1.383746 
344.691500 	 1.385006 
345.684700 	 1.386111 
346.682300 	 1.385711 
347.674200 	 1.389761 
348.690600 	 1.389387 
349.699300 	 1.387321 
350.700900 	 1.389377 
351.707400 	 1.391204 
352.719100 	 1.392458 
353.733400 	 1.395704 
354.764300 	 1.397386 
355.782800 	 1.399077 
356.776100 	 1.399952 
357.749000 	 1.398418 
358.712000 	 1.397921 
359.682000 	 1.396060 
360.673600 	 1.397670 
361.690400 	 1.398794 
362.689700 	 1.400606 
363.704500 	 1.405652 
364.724900 	 1.404818 
365.715900 	 1.409442 
366.726000 	 1.412739 
367.716600 	 1.413287 
368.704700 	 1.418762 
369.718400 	 1.425793 
370.704600 	 1.428212 
371.708400 	 1.432827 
372.721700 	 1.436685 
373.708100 	 1.432152 
374.712900 	 1.436503 
375.721900 	 1.442757 
376.705100 	 1.447351 
377.682700 	 1.455734 
378.694200 	 1.454975 
379.681300 	 1.451281 
380.687700 	 1.452506 
381.671000 	 1.454999 
382.653700 	 1.462971 
383.655800 	 1.473461 
384.660900 	 1.479729 
385.711000 	 1.482872 
386.712300 	 1.480544 
387.708900 	 1.479703 
388.697500 	 1.481694 
389.683100 	 1.485687 
390.669000 	 1.493641 
391.679700 	 1.500291 
392.666900 	 1.506505 
393.671400 	 1.513079 
394.697000 	 1.518972 
395.692300 	 1.521813 
396.694000 	 1.524593 
397.685300 	 1.527967 
398.211100 	 1.511472 
398.256200 	 1.486277 
397.789400 	 1.448812 
396.840500 	 1.399245 
395.856600 	 1.362160 
394.849200 	 1.327395 
393.855400 	 1.295355 
392.865000 	 1.268136 
391.852500 	 1.243287 
390.841400 	 1.217879 
389.843600 	 1.195486 
388.828200 	 1.174621 
387.817200 	 1.155163 
386.832000 	 1.138047 
385.847700 	 1.120418 
384.834200 	 1.100490 
383.859600 	 1.080278 
382.858800 	 1.059928 
381.853000 	 1.042784 
380.869800 	 1.029092 
379.856800 	 1.015570 
378.887400 	 1.002793 
377.879000 	 0.991468 
376.880200 	 0.981818 
375.876200 	 0.973635 
374.846000 	 0.965737 
373.837200 	 0.952684 
372.833000 	 0.940904 
371.847200 	 0.929505 
370.845100 	 0.917932 
369.865700 	 0.909350 
368.864100 	 0.899149 
367.855800 	 0.889084 
366.857100 	 0.882240 
365.843900 	 0.877607 
364.849000 	 0.871636 
363.865200 	 0.865723 
362.851100 	 0.858492 
361.864000 	 0.848785 
360.855500 	 0.843129 
359.856800 	 0.837568 
358.855500 	 0.830675 
357.867000 	 0.825403 
356.878200 	 0.817558 
355.869600 	 0.810211 
354.867700 	 0.803725 
353.871400 	 0.799188 
352.876500 	 0.794570 
351.863300 	 0.788229 
350.879800 	 0.782544 
349.848000 	 0.775733 
348.826500 	 0.767919 
347.816000 	 0.763891 
346.809500 	 0.760992 
345.823600 	 0.758168 
344.829400 	 0.755499 
343.843500 	 0.752386 
342.847400 	 0.748225 
341.851900 	 0.744022 
340.844300 	 0.740433 
339.814100 	 0.734198 
338.798000 	 0.728626 
337.772800 	 0.724472 
336.776700 	 0.721549 
335.807700 	 0.719466 
334.819500 	 0.717244 
333.831500 	 0.714211 
332.832900 	 0.710044 
331.831100 	 0.704378 
330.840700 	 0.699297 
329.849800 	 0.693840 
328.855000 	 0.688494 
327.851000 	 0.687049 
326.814900 	 0.683501 
325.809000 	 0.679783 
324.811700 	 0.677160 
323.805100 	 0.672465 
322.816100 	 0.669203 
321.811300 	 0.666469 
320.801700 	 0.662376 
319.819200 	 0.658857 
318.851200 	 0.654478 
317.860400 	 0.650618 
316.869400 	 0.647089 
315.847500 	 0.643985 
314.826800 	 0.641649 
313.843900 	 0.637888 
312.854900 	 0.633944 
311.878100 	 0.629483 
310.892600 	 0.626524 
309.879200 	 0.624636 
308.880000 	 0.623956 
307.877700 	 0.622627 
306.881300 	 0.621506 
305.901500 	 0.620050 
304.900100 	 0.617709 
303.933800 	 0.613811 
302.932900 	 0.608857 
301.915300 	 0.602931 
300.884900 	 0.599782 
299.865200 	 0.598598 
298.861700 	 0.596202 
297.851400 	 0.593668 
296.874700 	 0.589340 
295.858800 	 0.585218 
294.865700 	 0.582449 
293.897400 	 0.580706 
292.885900 	 0.578540 
291.870800 	 0.574426 
290.846600 	 0.570316 
289.793900 	 0.565625 
288.797800 	 0.561311 
287.796800 	 0.555151 
286.817500 	 0.551991 
285.839500 	 0.548756 
284.845800 	 0.545354 
283.857300 	 0.545807 
282.855000 	 0.542795 
281.855400 	 0.540275 
280.857200 	 0.537251 
279.887100 	 0.533732 
278.892100 	 0.528725 
277.894800 	 0.523719 
276.907200 	 0.520276 
275.888800 	 0.515898 
274.876700 	 0.513020 
273.887200 	 0.510322 
272.863000 	 0.504608 
271.861700 	 0.499832 
270.847000 	 0.495535 
269.828900 	 0.490067 
268.821000 	 0.486618 
267.828600 	 0.482348 
266.847600 	 0.477505 
265.863800 	 0.472977 
264.865000 	 0.467309 
263.861400 	 0.465154 
262.869200 	 0.462100 
261.881700 	 0.457336 
260.920800 	 0.453366 
259.919800 	 0.446066 
258.900500 	 0.438840 
257.890400 	 0.434489 
256.873200 	 0.429167 
255.888900 	 0.426223 
254.920300 	 0.424237 
253.923900 	 0.420037 
252.949800 	 0.415499 
251.935600 	 0.409197 
250.921300 	 0.403351 
249.901300 	 0.399178 
248.856000 	 0.394440 
247.858000 	 0.387717 
246.855100 	 0.379608 
245.874400 	 0.369401 
244.881900 	 0.361592 
243.872800 	 0.354243 
242.871100 	 0.347750 
241.866300 	 0.342684 
240.868300 	 0.336490 
239.863200 	 0.332283 
238.866400 	 0.325603 
237.865200 	 0.317840 
236.868200 	 0.310791 
235.872500 	 0.303793 
234.856100 	 0.298895 
233.854200 	 0.293280 
232.847200 	 0.284597 
231.861700 	 0.272546 
230.869400 	 0.260833 
229.859500 	 0.250587 
228.881700 	 0.242889 
227.884300 	 0.236789 
226.903600 	 0.229964 
225.930500 	 0.222704 
224.935600 	 0.214463 
223.923200 	 0.207430 
222.924400 	 0.198896 
221.906100 	 0.190974 
220.870900 	 0.182686 
219.862200 	 0.173587 
218.856700 	 0.164802 
217.870900 	 0.155377 
216.906300 	 0.146239 
215.931000 	 0.136461 
214.932400 	 0.127730 
213.918600 	 0.118558 
212.904700 	 0.110054 
211.891800 	 0.100331 
210.879000 	 0.089387 
209.887900 	 0.078905 
208.909900 	 0.067782 
207.921200 	 0.058997 
206.959800 	 0.050580 
205.958500 	 0.041927 
204.960800 	 0.032261 
203.977800 	 0.019433 
202.977700 	 0.008275 
202.002900 	 -0.003056 
200.983800 	 -0.014361 
199.960500 	 -0.023898 
198.923100 	 -0.034858 
197.906200 	 -0.045010 
196.925100 	 -0.053951 
195.937800 	 -0.062962 
194.939400 	 -0.072006 
193.944600 	 -0.081458 
192.931000 	 -0.091472 
191.918900 	 -0.100930 
190.955100 	 -0.110513 
189.959000 	 -0.120800 
188.966500 	 -0.130729 
187.962100 	 -0.140538 
186.932700 	 -0.149690 
185.909500 	 -0.159401 
184.880200 	 -0.169081 
183.894100 	 -0.178164 
182.890500 	 -0.189602 
181.889900 	 -0.199530 
180.912500 	 -0.209012 
179.905400 	 -0.218993 
178.914900 	 -0.227677 
177.945300 	 -0.238414 
176.950900 	 -0.248935 
175.941000 	 -0.260460 
174.930600 	 -0.269962 
173.897600 	 -0.277412 
172.891200 	 -0.285927 
171.882900 	 -0.293542 
170.887800 	 -0.301883 
169.888000 	 -0.311446 
168.885100 	 -0.322425 
167.905700 	 -0.332894 
166.902000 	 -0.342280 
165.916100 	 -0.349502 
164.936800 	 -0.355218 
163.951600 	 -0.362663 
162.954800 	 -0.371262 
161.955200 	 -0.380279 
160.933500 	 -0.389499 
159.919100 	 -0.397177 
158.926100 	 -0.404068 
157.925400 	 -0.411927 
156.936800 	 -0.418464 
155.957400 	 -0.425787 
154.956400 	 -0.433448 
153.976300 	 -0.441482 
152.990600 	 -0.451480 
151.983600 	 -0.460327 
150.988500 	 -0.470692 
149.976000 	 -0.479309 
148.963200 	 -0.485660 
147.955200 	 -0.493494 
146.942800 	 -0.500236 
145.959600 	 -0.506215 
144.972400 	 -0.514569 
143.955300 	 -0.522599 
142.967600 	 -0.530129 
141.940900 	 -0.537610 
140.906900 	 -0.543608 
139.907100 	 -0.548385 
138.899300 	 -0.553807 
137.888200 	 -0.560540 
136.895200 	 -0.565237 
135.909700 	 -0.571256 
134.911100 	 -0.576698 
133.922600 	 -0.582451 
132.937600 	 -0.587295 
131.920700 	 -0.593860 
130.915500 	 -0.600276 
129.906200 	 -0.605699 
128.900200 	 -0.612396 
127.913400 	 -0.614614 
126.946200 	 -0.615106 
125.961600 	 -0.614070 
124.958500 	 -0.614116 
123.976700 	 -0.614414 
122.961100 	 -0.615969 
121.945200 	 -0.620141 
120.937800 	 -0.622318 
119.925200 	 -0.624742 
118.911600 	 -0.628317 
117.914400 	 -0.630961 
116.926100 	 -0.634201 
115.942300 	 -0.636669 
114.975100 	 -0.637970 
113.998600 	 -0.638853 
112.998900 	 -0.640573 
111.982600 	 -0.642406 
110.948500 	 -0.643359 
109.950300 	 -0.644963 
108.958300 	 -0.644673 
107.960000 	 -0.641828 
106.977800 	 -0.639131 
105.964600 	 -0.636208 
104.966600 	 -0.638414 
103.979100 	 -0.642607 
102.989000 	 -0.646156 
102.007400 	 -0.648546 
101.014700 	 -0.647468 
100.001500 	 -0.647605 
98.995030 	 -0.649000 
97.994750 	 -0.649425 
96.983740 	 -0.649840 
96.000370 	 -0.647333 
95.000600 	 -0.641120 
93.983220 	 -0.639191 
92.972670 	 -0.638296 
91.954300 	 -0.643803 
90.930290 	 -0.649331 
89.952330 	 -0.651422 
88.958010 	 -0.651646 
87.950320 	 -0.646844 
86.969340 	 -0.644408 
85.956380 	 -0.643605 
84.971800 	 -0.641874 
83.985050 	 -0.640486 
82.977910 	 -0.639473 
81.977600 	 -0.636725 
80.939190 	 -0.637483 
79.923130 	 -0.635999 
78.915530 	 -0.634489 
77.922390 	 -0.632199 
76.952300 	 -0.626560 
75.977730 	 -0.622078 
75.022080 	 -0.618569 
74.004000 	 -0.617830 
72.991760 	 -0.622490 
71.991710 	 -0.626826 
70.949960 	 -0.628531 
69.955690 	 -0.628078 
68.974140 	 -0.622243 
67.956540 	 -0.619932 
66.961180 	 -0.619139 
65.964570 	 -0.617849 
64.955400 	 -0.619163 
63.980960 	 -0.613580 
63.002860 	 -0.606868 
62.012470 	 -0.602198 
61.022670 	 -0.594179 
60.000720 	 -0.594754 
58.996240 	 -0.600477 
57.999790 	 -0.604031 
56.995990 	 -0.608526 
56.028610 	 -0.604906 
55.015430 	 -0.597309 
54.004390 	 -0.595064 
53.003980 	 -0.594940 
51.975120 	 -0.597926 
50.981640 	 -0.599521 
50.001250 	 -0.595979 
49.004410 	 -0.590308 
48.018110 	 -0.586623 
47.013110 	 -0.582916 
46.003090 	 -0.581185 
45.002130 	 -0.581174 
43.970540 	 -0.579851 
42.980980 	 -0.583166 
41.976950 	 -0.583750 
40.981280 	 -0.583882 
40.004640 	 -0.583461 
39.005520 	 -0.579307 
38.002430 	 -0.578405 
36.992640 	 -0.575277 
35.989350 	 -0.574789 
34.975050 	 -0.574076 
33.956760 	 -0.571975 
32.929930 	 -0.571019 
31.929190 	 -0.570021 
30.928620 	 -0.569307 
29.939590 	 -0.568344 
28.966650 	 -0.566686 
27.953080 	 -0.561092 
26.978450 	 -0.556337 
25.992110 	 -0.551633 
24.998880 	 -0.553178 
24.032560 	 -0.558401 
23.029500 	 -0.563498 
22.034180 	 -0.567765 
21.035580 	 -0.567559 
20.015850 	 -0.565808 
18.993890 	 -0.564391 
17.996680 	 -0.562209 
16.992620 	 -0.560443 
16.000080 	 -0.559396 
15.008270 	 -0.558922 
14.001550 	 -0.559250 
13.028700 	 -0.556001 
12.033800 	 -0.552499 
11.049710 	 -0.549052 
10.025990 	 -0.552300 
9.009560 	 -0.557328 
8.004045 	 -0.562143 
7.011574 	 -0.563960 
6.053361 	 -0.560025 
5.070862 	 -0.556709 
4.100845 	 -0.554229 
3.105551 	 -0.555170 
2.124340 	 -0.555511 
1.126684 	 -0.556782 
0.110719 	 -0.556327 
-0.879904 	 -0.555354 
-1.872342 	 -0.552589 
-2.849871 	 -0.550508 
-3.830257 	 -0.551323 
-4.806862 	 -0.552108 
-5.807093 	 -0.555466 
-6.810230 	 -0.556852 
-7.801859 	 -0.556712 
-8.829662 	 -0.556471 
-9.848402 	 -0.555596 
-10.839490 	 -0.554679 
-11.837220 	 -0.555483 
-12.820520 	 -0.554949 
-13.789080 	 -0.555293 
-14.809900 	 -0.556298 
-15.804500 	 -0.556995 
-16.810150 	 -0.558447 
-17.832220 	 -0.559950 
-18.830210 	 -0.561517 
-19.841380 	 -0.561029 
-20.832550 	 -0.561306 
-21.817250 	 -0.561631 
-22.818620 	 -0.560937 
-23.797370 	 -0.561731 
-24.790630 	 -0.561802 
-25.780460 	 -0.561591 
-26.745280 	 -0.560772 
-27.757600 	 -0.558727 
-28.763010 	 -0.559291 
-29.772540 	 -0.562110 
-30.801740 	 -0.567049 
-31.808250 	 -0.571987 
-32.817170 	 -0.573565 
-33.831590 	 -0.572706 
-34.814380 	 -0.569956 
-35.813500 	 -0.570217 
-36.807110 	 -0.575216 
-37.809800 	 -0.581177 
-38.829280 	 -0.587310 
-39.818270 	 -0.591526 
-40.818650 	 -0.593870 
-41.815480 	 -0.593698 
-42.807980 	 -0.595927 
-43.806240 	 -0.600492 
-44.811000 	 -0.603865 
-45.793220 	 -0.607606 
-46.791600 	 -0.610702 
-47.808480 	 -0.610645 
-48.802930 	 -0.610273 
-49.826990 	 -0.611388 
-50.809780 	 -0.614115 
-51.791110 	 -0.618049 
-52.777610 	 -0.621060 
-53.742510 	 -0.622071 
-54.755530 	 -0.624597 
-55.770720 	 -0.626421 
-56.797930 	 -0.629613 
-57.822000 	 -0.637679 
-58.825620 	 -0.643169 
-59.830290 	 -0.648246 
-60.821950 	 -0.652908 
-61.810310 	 -0.654299 
-62.827800 	 -0.655425 
-63.817650 	 -0.657367 
-64.808490 	 -0.661255 
-65.823920 	 -0.663481 
-66.833470 	 -0.664955 
-67.848500 	 -0.668763 
-68.869040 	 -0.672911 
-69.883380 	 -0.680753 
-70.868690 	 -0.688362 
-71.846400 	 -0.693865 
-72.848120 	 -0.698424 
-73.829280 	 -0.700958 
-74.821140 	 -0.705498 
-75.840870 	 -0.710822 
-76.821530 	 -0.715624 
-77.819080 	 -0.720043 
-78.833690 	 -0.724832 
-79.829790 	 -0.728818 
-80.836120 	 -0.734042 
-81.829250 	 -0.739315 
-82.802880 	 -0.744424 
-83.788190 	 -0.750953 
-84.785460 	 -0.757386 
-85.790120 	 -0.765515 
-86.785390 	 -0.772967 
-87.778030 	 -0.781549 
-88.793080 	 -0.789041 
-89.787160 	 -0.796371 
-90.796710 	 -0.802552 
-91.801830 	 -0.809454 
-92.789400 	 -0.816528 
-93.801580 	 -0.824312 
-94.801260 	 -0.834403 
-95.809950 	 -0.841888 
-96.804820 	 -0.848884 
-97.812360 	 -0.858694 
