WE1 Volts(mV)    WE1 Idir (uA) 
-100.447800 	 -1.013538 
-100.212300 	 -0.979755 
-99.717240 	 -0.937804 
-98.980700 	 -0.890367 
-97.979120 	 -0.833661 
-96.984100 	 -0.804339 
-95.996780 	 -0.777860 
-95.007640 	 -0.751621 
-94.008960 	 -0.725502 
-92.979510 	 -0.707368 
-91.954780 	 -0.689050 
-90.934600 	 -0.668617 
-89.952740 	 -0.654149 
-89.001980 	 -0.635410 
-88.050820 	 -0.615553 
-87.065090 	 -0.599123 
-86.054180 	 -0.579836 
-85.031750 	 -0.563824 
-83.992880 	 -0.547199 
-82.994920 	 -0.533922 
-81.995060 	 -0.521895 
-80.982540 	 -0.505306 
-79.993320 	 -0.492235 
-78.979680 	 -0.478687 
-77.973050 	 -0.463781 
-76.990420 	 -0.453178 
-75.998850 	 -0.441013 
-75.005990 	 -0.427082 
-74.017700 	 -0.416890 
-73.010150 	 -0.407126 
-72.005220 	 -0.396424 
-71.025400 	 -0.388358 
-70.020320 	 -0.376395 
-69.028350 	 -0.360990 
-68.019040 	 -0.348006 
-67.005840 	 -0.333846 
-66.003880 	 -0.323891 
-64.999610 	 -0.317151 
-63.997600 	 -0.311968 
-62.998570 	 -0.302340 
-61.993150 	 -0.292808 
-60.992770 	 -0.284177 
-60.008640 	 -0.272532 
-59.000510 	 -0.264605 
-58.015270 	 -0.257745 
-57.007640 	 -0.246319 
-55.997010 	 -0.237780 
-54.994190 	 -0.230946 
-53.967860 	 -0.224218 
-52.973970 	 -0.219122 
-51.966170 	 -0.214057 
-50.963910 	 -0.209077 
-49.979210 	 -0.200392 
-48.979430 	 -0.192668 
-47.989390 	 -0.186083 
-46.984780 	 -0.177818 
-45.981000 	 -0.169926 
-44.983160 	 -0.164452 
-43.990060 	 -0.157095 
-43.005190 	 -0.150912 
-41.988080 	 -0.145996 
-40.984170 	 -0.139789 
-39.978470 	 -0.133909 
-38.966300 	 -0.128199 
-37.992600 	 -0.123671 
-36.985930 	 -0.118410 
-35.959450 	 -0.112626 
-34.954020 	 -0.107984 
-33.954660 	 -0.102173 
-32.939170 	 -0.097737 
-31.965200 	 -0.094420 
-30.966780 	 -0.088918 
-29.947500 	 -0.083458 
-28.946570 	 -0.078893 
-27.935280 	 -0.072910 
-26.954360 	 -0.069257 
-25.951640 	 -0.068851 
-24.971950 	 -0.064042 
-23.978670 	 -0.060094 
-22.971310 	 -0.056276 
-21.968280 	 -0.050197 
-20.989400 	 -0.046685 
-19.991810 	 -0.047230 
-19.003420 	 -0.041232 
-18.031850 	 -0.036901 
-17.004770 	 -0.031496 
-16.007160 	 -0.023500 
-15.000530 	 -0.022362 
-13.979870 	 -0.019614 
-12.986580 	 -0.019861 
-11.964540 	 -0.018930 
-10.950300 	 -0.015371 
-9.962141 	 -0.012994 
-8.950221 	 -0.008773 
-7.964040 	 -0.004997 
-6.978520 	 -0.002787 
-5.973650 	 0.000819 
-4.959632 	 0.004631 
-3.983853 	 0.003647 
-3.005448 	 0.004518 
-2.025525 	 0.004485 
-1.065365 	 0.005101 
-0.049746 	 0.006907 
0.935791 	 0.010748 
1.928560 	 0.012809 
2.912627 	 0.013336 
3.890157 	 0.018922 
4.909358 	 0.020792 
5.883850 	 0.024177 
6.883932 	 0.027576 
7.874174 	 0.029367 
8.863773 	 0.031205 
9.873812 	 0.032322 
10.865230 	 0.033023 
11.870150 	 0.033947 
12.858140 	 0.034428 
13.872950 	 0.035904 
14.896000 	 0.039565 
15.882780 	 0.038913 
16.891230 	 0.039503 
17.887550 	 0.042403 
18.854720 	 0.044765 
19.860980 	 0.051203 
20.884690 	 0.055879 
21.873550 	 0.057049 
22.880600 	 0.059092 
23.878850 	 0.059951 
24.853950 	 0.057877 
25.853630 	 0.063699 
26.853290 	 0.065215 
27.862550 	 0.066216 
28.854390 	 0.070351 
29.838660 	 0.068077 
30.832620 	 0.066698 
31.801540 	 0.071365 
32.808510 	 0.077827 
33.823520 	 0.084304 
34.823230 	 0.089777 
35.843600 	 0.090563 
36.847490 	 0.088285 
37.843140 	 0.085854 
38.851190 	 0.090361 
39.844870 	 0.094249 
40.843100 	 0.099194 
41.829120 	 0.104554 
42.810010 	 0.107414 
43.824690 	 0.110830 
44.829910 	 0.115657 
45.850060 	 0.119207 
46.890570 	 0.122832 
47.876530 	 0.123452 
48.861250 	 0.125350 
49.844180 	 0.128768 
50.803510 	 0.130498 
51.800670 	 0.136127 
52.818220 	 0.142589 
53.821700 	 0.147270 
54.831920 	 0.154306 
55.823020 	 0.158439 
56.819630 	 0.160627 
57.834800 	 0.163772 
58.839570 	 0.165711 
59.852130 	 0.171612 
60.838460 	 0.176696 
61.805180 	 0.180976 
62.786660 	 0.185833 
63.772710 	 0.191046 
64.748410 	 0.195794 
65.757000 	 0.203020 
66.755680 	 0.207495 
67.752910 	 0.212266 
68.772370 	 0.220405 
69.772240 	 0.225548 
70.773960 	 0.233884 
71.795270 	 0.241410 
72.818280 	 0.246857 
73.835660 	 0.254383 
74.834280 	 0.259833 
75.806810 	 0.265642 
76.764820 	 0.271580 
77.734330 	 0.280042 
78.741710 	 0.291177 
79.766040 	 0.300708 
80.778680 	 0.309644 
81.808790 	 0.320417 
82.791920 	 0.326947 
83.756610 	 0.335817 
84.770110 	 0.347141 
85.761970 	 0.354826 
86.771320 	 0.365375 
87.801030 	 0.375424 
88.783960 	 0.385287 
89.773460 	 0.394482 
90.782260 	 0.404738 
91.790000 	 0.414785 
92.792980 	 0.423089 
93.815130 	 0.435165 
94.834820 	 0.446912 
95.833470 	 0.458977 
96.845770 	 0.473370 
97.839300 	 0.487877 
98.838040 	 0.501318 
99.845740 	 0.512645 
100.859800 	 0.525146 
101.853400 	 0.536084 
102.860500 	 0.550476 
103.845500 	 0.565387 
104.823200 	 0.580116 
105.823100 	 0.595653 
106.795600 	 0.610041 
107.777500 	 0.628883 
108.780400 	 0.644188 
109.763000 	 0.661421 
110.776900 	 0.678890 
111.805100 	 0.692795 
112.809000 	 0.709074 
113.829400 	 0.725804 
114.805800 	 0.741203 
115.787800 	 0.758578 
116.769900 	 0.777419 
117.778000 	 0.795759 
118.793200 	 0.816861 
119.790500 	 0.839152 
120.800000 	 0.858350 
121.784900 	 0.876381 
122.792500 	 0.889235 
123.802300 	 0.906648 
124.809400 	 0.928833 
125.800700 	 0.949737 
126.783300 	 0.975860 
127.790800 	 0.998415 
128.775900 	 1.019200 
129.801600 	 1.045281 
130.796800 	 1.067176 
131.779800 	 1.088579 
132.799400 	 1.109369 
133.755300 	 1.126337 
134.758100 	 1.149543 
135.761200 	 1.172594 
136.758300 	 1.196852 
137.781300 	 1.223447 
138.783800 	 1.248871 
139.769200 	 1.272658 
140.768200 	 1.295101 
141.783400 	 1.315187 
142.793500 	 1.332906 
143.817700 	 1.351136 
144.815400 	 1.369686 
145.784000 	 1.391112 
146.770800 	 1.407639 
147.750900 	 1.428113 
148.742000 	 1.448975 
149.756300 	 1.465371 
150.782400 	 1.488366 
151.815700 	 1.504749 
152.809900 	 1.518810 
153.812700 	 1.534237 
154.781900 	 1.549232 
155.761000 	 1.570920 
156.776700 	 1.599099 
157.770900 	 1.624261 
158.769500 	 1.649179 
159.755200 	 1.666783 
160.728600 	 1.679862 
161.730900 	 1.698104 
162.748900 	 1.710156 
163.747400 	 1.724592 
164.758300 	 1.738787 
165.751000 	 1.749644 
166.729800 	 1.763873 
167.719000 	 1.781376 
168.709300 	 1.795377 
169.722900 	 1.809779 
170.735800 	 1.819260 
171.764300 	 1.829511 
172.791700 	 1.840858 
173.774200 	 1.850577 
174.792000 	 1.866753 
175.786200 	 1.873690 
176.767300 	 1.881088 
177.778900 	 1.891149 
178.759300 	 1.896539 
179.752500 	 1.906368 
180.766400 	 1.914824 
181.750900 	 1.919103 
182.754000 	 1.924440 
183.751000 	 1.927846 
184.743700 	 1.931486 
185.746100 	 1.935570 
186.748600 	 1.938480 
187.750900 	 1.946149 
188.752400 	 1.949099 
189.774200 	 1.956688 
190.778700 	 1.963816 
191.788200 	 1.962788 
192.789800 	 1.961968 
193.775200 	 1.960762 
194.786000 	 1.961785 
195.761900 	 1.964929 
196.765200 	 1.970240 
197.774500 	 1.970976 
198.761400 	 1.970677 
199.799900 	 1.969586 
200.811100 	 1.967123 
201.832800 	 1.963718 
202.837900 	 1.953869 
203.798600 	 1.942744 
204.762900 	 1.937800 
205.723800 	 1.938201 
206.718000 	 1.945328 
207.711000 	 1.951460 
208.723400 	 1.950897 
209.744400 	 1.946522 
210.735400 	 1.937199 
211.755600 	 1.931926 
212.752800 	 1.927854 
213.738800 	 1.922097 
214.730400 	 1.919127 
215.737500 	 1.915062 
216.728600 	 1.910804 
217.724200 	 1.909653 
218.723000 	 1.907838 
219.721000 	 1.907063 
220.713900 	 1.907082 
221.702500 	 1.901545 
222.700100 	 1.898831 
223.678300 	 1.893742 
224.679000 	 1.884464 
225.698200 	 1.885021 
226.688400 	 1.881545 
227.694200 	 1.880289 
228.697700 	 1.883531 
229.675000 	 1.876862 
230.673200 	 1.876454 
231.673000 	 1.874646 
232.667100 	 1.870138 
233.659100 	 1.871945 
234.651000 	 1.869075 
235.639300 	 1.864501 
236.623600 	 1.864608 
237.630200 	 1.862017 
238.655100 	 1.860801 
239.682900 	 1.855808 
240.724100 	 1.859278 
241.748200 	 1.861333 
242.749300 	 1.859826 
243.716000 	 1.864822 
244.703200 	 1.859369 
245.659700 	 1.853489 
246.643400 	 1.852722 
247.667600 	 1.852745 
248.658200 	 1.854114 
249.685700 	 1.856833 
250.709900 	 1.858862 
251.727100 	 1.859116 
252.734600 	 1.857749 
253.739900 	 1.854844 
254.733700 	 1.852103 
255.690400 	 1.850637 
256.674500 	 1.852715 
257.661100 	 1.854594 
258.660800 	 1.858411 
259.684400 	 1.859953 
260.708900 	 1.858293 
261.719100 	 1.858299 
262.716500 	 1.857700 
263.719600 	 1.858238 
264.699500 	 1.861604 
265.690800 	 1.863985 
266.670000 	 1.865762 
267.664100 	 1.869724 
268.665200 	 1.871422 
269.670700 	 1.871833 
270.687300 	 1.873281 
271.673400 	 1.870966 
272.685600 	 1.871444 
273.694300 	 1.874609 
274.679200 	 1.875228 
275.678900 	 1.879012 
276.693700 	 1.883064 
277.698400 	 1.885175 
278.706600 	 1.889365 
279.733300 	 1.892840 
280.694400 	 1.894032 
281.685200 	 1.897602 
282.684700 	 1.898695 
283.676900 	 1.900751 
284.683700 	 1.901424 
285.671600 	 1.900586 
286.663300 	 1.902040 
287.645300 	 1.904220 
288.650500 	 1.910991 
289.671800 	 1.920099 
290.682800 	 1.926098 
291.693500 	 1.931701 
292.692000 	 1.933967 
293.677000 	 1.934628 
294.654500 	 1.937834 
295.663800 	 1.942164 
296.653200 	 1.946930 
297.671300 	 1.950930 
298.693100 	 1.959216 
299.685100 	 1.963799 
300.698800 	 1.968091 
301.696400 	 1.975987 
302.705600 	 1.980512 
303.701400 	 1.983305 
304.706000 	 1.987148 
305.684700 	 1.990813 
306.689300 	 1.992029 
307.688500 	 2.000025 
308.682100 	 2.007614 
309.695200 	 2.010950 
310.663000 	 2.016510 
311.658700 	 2.018430 
312.666400 	 2.020275 
313.662900 	 2.024768 
314.661700 	 2.032310 
315.671100 	 2.040917 
316.690700 	 2.050483 
317.689500 	 2.064031 
318.707200 	 2.073459 
319.712600 	 2.080354 
320.680100 	 2.085578 
321.669600 	 2.089365 
322.666600 	 2.089360 
323.639700 	 2.095955 
324.638700 	 2.103661 
325.643600 	 2.109602 
326.661900 	 2.121029 
327.690300 	 2.129344 
328.714600 	 2.132762 
329.714400 	 2.138069 
330.697500 	 2.143485 
331.684900 	 2.146358 
332.667100 	 2.152898 
333.664200 	 2.156595 
334.660600 	 2.161172 
335.639800 	 2.164660 
336.620300 	 2.169117 
337.625100 	 2.177394 
338.612900 	 2.182600 
339.618700 	 2.191022 
340.641600 	 2.201647 
341.659600 	 2.207799 
342.679500 	 2.215310 
343.683200 	 2.223872 
344.665300 	 2.230179 
345.621200 	 2.238592 
346.619400 	 2.245270 
347.632800 	 2.252013 
348.640700 	 2.259676 
349.674400 	 2.266049 
350.682800 	 2.275006 
351.681900 	 2.282043 
352.695100 	 2.286360 
353.688500 	 2.296651 
354.694800 	 2.305536 
355.692700 	 2.316275 
356.674900 	 2.330310 
357.660400 	 2.338026 
358.643200 	 2.347476 
359.639300 	 2.353618 
360.648400 	 2.359891 
361.661500 	 2.369534 
362.677800 	 2.377585 
363.695000 	 2.387089 
364.681600 	 2.397086 
365.683400 	 2.404767 
366.651800 	 2.416300 
367.661400 	 2.428094 
368.679300 	 2.438355 
369.691500 	 2.447657 
370.689500 	 2.452798 
371.660200 	 2.458117 
372.645200 	 2.467774 
373.621900 	 2.476932 
374.638200 	 2.488677 
375.629000 	 2.500994 
376.632800 	 2.510791 
377.645100 	 2.525249 
378.635600 	 2.538326 
379.653800 	 2.550531 
380.658700 	 2.561729 
381.645400 	 2.569597 
382.667600 	 2.579330 
383.642200 	 2.588732 
384.630800 	 2.599805 
385.648200 	 2.614252 
386.634500 	 2.625229 
387.651900 	 2.639513 
388.667100 	 2.651561 
389.650100 	 2.656495 
390.634900 	 2.670865 
391.659000 	 2.685786 
392.669700 	 2.699622 
393.676800 	 2.719118 
394.697600 	 2.732022 
395.668900 	 2.742829 
396.653700 	 2.756308 
397.660700 	 2.770564 
398.203600 	 2.715295 
398.256000 	 2.622313 
397.789100 	 2.497999 
396.825700 	 2.346677 
395.819200 	 2.235340 
394.817300 	 2.143507 
393.823900 	 2.065564 
392.806200 	 1.997355 
391.794600 	 1.941444 
390.795300 	 1.887794 
389.800600 	 1.837018 
388.836300 	 1.787372 
387.832200 	 1.740621 
386.823400 	 1.696700 
385.820400 	 1.654583 
384.798300 	 1.616700 
383.795600 	 1.581675 
382.804600 	 1.549040 
381.809900 	 1.516894 
380.821700 	 1.485430 
379.834500 	 1.453112 
378.833600 	 1.422892 
377.838800 	 1.394698 
376.834300 	 1.367629 
375.829500 	 1.344813 
374.808300 	 1.322789 
373.792800 	 1.302850 
372.775800 	 1.285834 
371.773600 	 1.267403 
370.795700 	 1.251693 
369.819900 	 1.238190 
368.836100 	 1.222875 
367.842400 	 1.210107 
366.844800 	 1.195590 
365.819500 	 1.176776 
364.810200 	 1.158267 
363.814000 	 1.141301 
362.807600 	 1.124482 
361.816400 	 1.112146 
360.806300 	 1.102265 
359.828400 	 1.092871 
358.827400 	 1.082557 
357.838500 	 1.070566 
356.888800 	 1.059968 
355.872700 	 1.045599 
354.882400 	 1.034064 
353.886500 	 1.024435 
352.833300 	 1.011785 
351.831200 	 1.003732 
350.839800 	 0.995437 
349.827000 	 0.984884 
348.851800 	 0.976758 
347.829600 	 0.967075 
346.810300 	 0.957300 
345.802600 	 0.949423 
344.800300 	 0.940100 
343.816900 	 0.933340 
342.817300 	 0.924635 
341.818100 	 0.915588 
340.825000 	 0.908715 
339.829600 	 0.899323 
338.828800 	 0.892057 
337.839600 	 0.886759 
336.810600 	 0.878954 
335.799500 	 0.873088 
334.795300 	 0.868850 
333.771100 	 0.865244 
332.780100 	 0.862713 
331.784400 	 0.859821 
330.792300 	 0.856308 
329.832800 	 0.848454 
328.838900 	 0.841823 
327.849700 	 0.835265 
326.862100 	 0.828348 
325.841800 	 0.823191 
324.849400 	 0.818604 
323.830000 	 0.813379 
322.814100 	 0.809531 
321.809000 	 0.807466 
320.808300 	 0.804350 
319.833300 	 0.802750 
318.844100 	 0.798676 
317.854400 	 0.794242 
316.854000 	 0.789781 
315.848200 	 0.783530 
314.852100 	 0.781029 
313.838800 	 0.779605 
312.846300 	 0.775280 
311.868000 	 0.774298 
310.878300 	 0.771233 
309.897400 	 0.766603 
308.897200 	 0.764429 
307.881700 	 0.760045 
306.886900 	 0.756240 
305.902800 	 0.754015 
304.915600 	 0.749330 
303.908500 	 0.746920 
302.888500 	 0.742542 
301.854600 	 0.738165 
300.832800 	 0.737333 
299.831400 	 0.738491 
298.834000 	 0.739970 
297.848800 	 0.739127 
296.843800 	 0.738209 
295.851800 	 0.731923 
294.834300 	 0.727057 
293.827400 	 0.724528 
292.832200 	 0.721765 
291.814600 	 0.718618 
290.835600 	 0.715717 
289.844400 	 0.709931 
288.830800 	 0.700701 
287.840600 	 0.692590 
286.830600 	 0.681120 
285.812000 	 0.675261 
284.821200 	 0.670132 
283.807200 	 0.666623 
282.795400 	 0.666132 
281.813200 	 0.662666 
280.834900 	 0.662266 
279.857400 	 0.660669 
278.879300 	 0.656618 
277.879600 	 0.653359 
276.876400 	 0.648559 
275.866600 	 0.640938 
274.833900 	 0.638407 
273.824300 	 0.635147 
272.797500 	 0.631786 
271.791400 	 0.631742 
270.803100 	 0.626728 
269.776900 	 0.620877 
268.804800 	 0.616240 
267.827200 	 0.613559 
266.831300 	 0.614893 
265.868300 	 0.614823 
264.850400 	 0.613382 
263.816200 	 0.607859 
262.814400 	 0.599272 
261.802200 	 0.591967 
260.802100 	 0.584300 
259.828700 	 0.579168 
258.851500 	 0.571704 
257.863000 	 0.567440 
256.870500 	 0.560905 
255.867300 	 0.550842 
254.878100 	 0.552071 
253.883600 	 0.547427 
252.903900 	 0.543473 
251.909900 	 0.542350 
250.897500 	 0.531596 
249.877500 	 0.524672 
248.858900 	 0.519556 
247.873200 	 0.513640 
246.858100 	 0.507601 
245.875200 	 0.502569 
244.893100 	 0.498665 
243.880500 	 0.493752 
242.894900 	 0.490654 
241.887300 	 0.485967 
240.873600 	 0.479204 
239.866000 	 0.473395 
238.863100 	 0.467642 
237.864200 	 0.459889 
236.844100 	 0.451837 
235.840700 	 0.445878 
234.854200 	 0.437792 
233.856500 	 0.428955 
232.867000 	 0.422363 
231.875800 	 0.414919 
230.873100 	 0.404171 
229.855300 	 0.397943 
228.864800 	 0.393085 
227.861100 	 0.384228 
226.852300 	 0.380880 
225.872800 	 0.373026 
224.889900 	 0.365522 
223.900100 	 0.360397 
222.903500 	 0.353886 
221.913000 	 0.345823 
220.903500 	 0.331951 
219.895900 	 0.318212 
218.872800 	 0.309811 
217.853700 	 0.301309 
216.842100 	 0.295939 
215.859200 	 0.289233 
214.899200 	 0.276172 
213.905200 	 0.266286 
212.938500 	 0.254975 
211.931200 	 0.246966 
210.920800 	 0.236687 
209.928600 	 0.227863 
208.887700 	 0.217929 
207.870700 	 0.204627 
206.864200 	 0.195803 
205.878900 	 0.185688 
204.906600 	 0.175986 
203.942300 	 0.166286 
202.962500 	 0.154509 
201.942100 	 0.137672 
200.941800 	 0.121544 
199.930400 	 0.107248 
198.912000 	 0.091370 
197.919500 	 0.081815 
196.929200 	 0.071967 
195.915800 	 0.058442 
194.915600 	 0.043015 
193.917000 	 0.029971 
192.882400 	 0.015326 
191.888800 	 0.001830 
190.887400 	 -0.008313 
189.908600 	 -0.027160 
188.925900 	 -0.045377 
187.908200 	 -0.061553 
186.902000 	 -0.077128 
185.873900 	 -0.088592 
184.864600 	 -0.098051 
183.878700 	 -0.110062 
182.891600 	 -0.125150 
181.892800 	 -0.148387 
180.902200 	 -0.163941 
179.905400 	 -0.182924 
178.911800 	 -0.199351 
177.930900 	 -0.207304 
176.917800 	 -0.226061 
175.928400 	 -0.239398 
174.908600 	 -0.252522 
173.912400 	 -0.269201 
172.918400 	 -0.283287 
171.894700 	 -0.300736 
170.893000 	 -0.321624 
169.864700 	 -0.344293 
168.868600 	 -0.360658 
167.886200 	 -0.376714 
166.891700 	 -0.392950 
165.907900 	 -0.404486 
164.917600 	 -0.420978 
163.914900 	 -0.440703 
162.919900 	 -0.457141 
161.916000 	 -0.473864 
160.914600 	 -0.496123 
159.874900 	 -0.512548 
158.874600 	 -0.529742 
157.855200 	 -0.547109 
156.846300 	 -0.561917 
155.894000 	 -0.575130 
154.887500 	 -0.589400 
153.930500 	 -0.603707 
152.949900 	 -0.617706 
151.960600 	 -0.632500 
150.963700 	 -0.647356 
149.943400 	 -0.661245 
148.929200 	 -0.672132 
147.905000 	 -0.688529 
146.901200 	 -0.707037 
145.894900 	 -0.722291 
144.883700 	 -0.742521 
143.893400 	 -0.759123 
142.899000 	 -0.772695 
141.908100 	 -0.789740 
140.918100 	 -0.806047 
139.906900 	 -0.822692 
138.909800 	 -0.835842 
137.896500 	 -0.851416 
136.891700 	 -0.864460 
135.899800 	 -0.873437 
134.905300 	 -0.892881 
133.908200 	 -0.902775 
132.926100 	 -0.911968 
131.919200 	 -0.928657 
130.894200 	 -0.936465 
129.891800 	 -0.950846 
128.869100 	 -0.963137 
127.878100 	 -0.969893 
126.903900 	 -0.976386 
125.920700 	 -0.981460 
124.930200 	 -0.987782 
123.950900 	 -0.995976 
122.958800 	 -1.002300 
121.925400 	 -1.010935 
120.933200 	 -1.025142 
119.900900 	 -1.025800 
118.884400 	 -1.027746 
117.920200 	 -1.027319 
116.925200 	 -1.017891 
115.935900 	 -1.023345 
114.939700 	 -1.024323 
113.942400 	 -1.027344 
112.943600 	 -1.032501 
111.941700 	 -1.032280 
110.922600 	 -1.037519 
109.898200 	 -1.039847 
108.881100 	 -1.046986 
107.879400 	 -1.047231 
106.901600 	 -1.044205 
105.913100 	 -1.042840 
104.912900 	 -1.035796 
103.936600 	 -1.032463 
102.942200 	 -1.040421 
101.962500 	 -1.038437 
100.976900 	 -1.035100 
99.971010 	 -1.038615 
98.961460 	 -1.033559 
97.953030 	 -1.034268 
96.944140 	 -1.037540 
95.926540 	 -1.036048 
94.959600 	 -1.029779 
93.961960 	 -1.029610 
92.973590 	 -1.026520 
91.998280 	 -1.025981 
90.983390 	 -1.030187 
89.984330 	 -1.029324 
88.974300 	 -1.029517 
87.960390 	 -1.026334 
86.943580 	 -1.021808 
85.928630 	 -1.023163 
84.939540 	 -1.013751 
83.916030 	 -1.011475 
82.924930 	 -1.007097 
81.939010 	 -0.998891 
80.936170 	 -1.001736 
79.950550 	 -1.001512 
78.940900 	 -1.001472 
77.931690 	 -1.001395 
76.928580 	 -0.999934 
75.946560 	 -0.996127 
74.960410 	 -0.995150 
73.940600 	 -0.993424 
72.930490 	 -0.995148 
71.914890 	 -0.994968 
70.907240 	 -0.995377 
69.930600 	 -0.993927 
68.930730 	 -0.991327 
67.931730 	 -0.992047 
66.922420 	 -0.990870 
65.912480 	 -0.989320 
64.915380 	 -0.987345 
63.919940 	 -0.983623 
62.941370 	 -0.979055 
61.947250 	 -0.975275 
60.968050 	 -0.975303 
59.963610 	 -0.973364 
58.970040 	 -0.970750 
57.969710 	 -0.968908 
56.960040 	 -0.963585 
55.964650 	 -0.958921 
54.947170 	 -0.958750 
53.954740 	 -0.957158 
52.973770 	 -0.953566 
51.983260 	 -0.954874 
51.005960 	 -0.951091 
50.026220 	 -0.949390 
49.014180 	 -0.952466 
48.021630 	 -0.947007 
46.991130 	 -0.947200 
45.972530 	 -0.943211 
44.951680 	 -0.937653 
43.955960 	 -0.938578 
42.999090 	 -0.935690 
42.003720 	 -0.935967 
41.022920 	 -0.938622 
40.019880 	 -0.939138 
38.986060 	 -0.937453 
37.980340 	 -0.932577 
36.988210 	 -0.925831 
35.953660 	 -0.923592 
34.951890 	 -0.924788 
33.957110 	 -0.927465 
32.935820 	 -0.926946 
31.970400 	 -0.923460 
30.977080 	 -0.916721 
29.973290 	 -0.915966 
28.977780 	 -0.918886 
27.961150 	 -0.919712 
26.965150 	 -0.920542 
25.952570 	 -0.916700 
24.961810 	 -0.908978 
23.979740 	 -0.906362 
22.985520 	 -0.908704 
21.994720 	 -0.911050 
21.003250 	 -0.913915 
19.994600 	 -0.913394 
18.998940 	 -0.906967 
18.023250 	 -0.903733 
17.028830 	 -0.903766 
16.036210 	 -0.905772 
15.024140 	 -0.904256 
14.016030 	 -0.904290 
13.000430 	 -0.902690 
11.993510 	 -0.899777 
11.011160 	 -0.902473 
10.005280 	 -0.904275 
9.004145 	 -0.906385 
8.005647 	 -0.906129 
6.997045 	 -0.907685 
6.001304 	 -0.905704 
5.033351 	 -0.904136 
4.044743 	 -0.903507 
3.062360 	 -0.903428 
2.070202 	 -0.903661 
1.050670 	 -0.903941 
0.066768 	 -0.905425 
-0.937739 	 -0.904651 
-1.906353 	 -0.902685 
-2.853173 	 -0.903420 
-3.838793 	 -0.904239 
-4.811534 	 -0.903585 
-5.812459 	 -0.907643 
-6.831479 	 -0.911238 
-7.838133 	 -0.909333 
-8.843911 	 -0.914516 
-9.837736 	 -0.913700 
-10.850480 	 -0.910848 
-11.849870 	 -0.914660 
-12.837040 	 -0.912626 
-13.838250 	 -0.912952 
-14.817560 	 -0.913939 
-15.817460 	 -0.914713 
-16.837600 	 -0.917110 
-17.866040 	 -0.922221 
-18.868490 	 -0.926235 
-19.876240 	 -0.930770 
-20.877330 	 -0.931481 
-21.864200 	 -0.931708 
-22.877110 	 -0.933620 
-23.883680 	 -0.932930 
-24.869470 	 -0.935942 
-25.875890 	 -0.937451 
-26.858540 	 -0.936888 
-27.831000 	 -0.939792 
-28.808780 	 -0.944502 
-29.801760 	 -0.949648 
-30.816540 	 -0.955964 
-31.835470 	 -0.959396 
-32.865460 	 -0.961206 
-33.860470 	 -0.965353 
-34.856410 	 -0.968082 
-35.858510 	 -0.972662 
-36.857480 	 -0.975471 
-37.869060 	 -0.979528 
-38.870380 	 -0.986446 
-39.866170 	 -0.988801 
-40.850120 	 -0.995601 
-41.850400 	 -1.000041 
-42.854100 	 -1.000847 
-43.840640 	 -1.005877 
-44.842410 	 -1.009741 
-45.829130 	 -1.014132 
-46.812590 	 -1.020295 
-47.831960 	 -1.026659 
-48.829070 	 -1.030833 
-49.831580 	 -1.037617 
-50.842930 	 -1.046385 
-51.826380 	 -1.052062 
-52.818650 	 -1.058766 
-53.805370 	 -1.062515 
-54.807900 	 -1.065124 
-55.815320 	 -1.072663 
-56.847530 	 -1.082113 
-57.865750 	 -1.091615 
-58.860370 	 -1.099068 
-59.859710 	 -1.109155 
-60.853620 	 -1.116612 
-61.849510 	 -1.123950 
-62.846120 	 -1.134358 
-63.837040 	 -1.139348 
-64.824170 	 -1.145674 
-65.801840 	 -1.153253 
-66.800050 	 -1.161000 
-67.816120 	 -1.171291 
-68.823120 	 -1.183040 
-69.842310 	 -1.198480 
-70.851910 	 -1.205982 
-71.851310 	 -1.213138 
-72.861890 	 -1.221889 
-73.870320 	 -1.226599 
-74.856160 	 -1.236035 
-75.849790 	 -1.248407 
-76.837670 	 -1.260546 
-77.825830 	 -1.268633 
-78.812920 	 -1.283447 
-79.814410 	 -1.295630 
-80.824230 	 -1.306841 
-81.845660 	 -1.322978 
-82.867510 	 -1.338669 
-83.861400 	 -1.352083 
-84.846210 	 -1.360334 
-85.854640 	 -1.371578 
-86.862870 	 -1.380788 
-87.868000 	 -1.391579 
-88.881470 	 -1.408357 
-89.843570 	 -1.420584 
-90.839810 	 -1.433944 
-91.827120 	 -1.449656 
-92.832980 	 -1.462168 
-93.860760 	 -1.477605 
-94.852870 	 -1.492437 
-95.866780 	 -1.506729 
-96.851940 	 -1.524879 
-97.840930 	 -1.540605 
