WE1 Volts(mV)    WE1 Idir (uA) 
-100.413000 	 -0.627159 
-100.161200 	 -0.610465 
-99.673380 	 -0.583275 
-98.934650 	 -0.551993 
-97.948330 	 -0.515908 
-96.959290 	 -0.490905 
-95.971600 	 -0.472542 
-94.995080 	 -0.456534 
-93.958920 	 -0.437445 
-92.956150 	 -0.421539 
-91.952940 	 -0.407669 
-90.920180 	 -0.393970 
-89.953490 	 -0.383892 
-88.989110 	 -0.372879 
-87.977210 	 -0.362180 
-86.981700 	 -0.347989 
-85.973430 	 -0.336567 
-84.941180 	 -0.326615 
-83.948330 	 -0.316740 
-82.954000 	 -0.311218 
-81.967830 	 -0.304698 
-80.972080 	 -0.297107 
-79.979990 	 -0.289630 
-78.992230 	 -0.279335 
-77.985470 	 -0.272030 
-76.980380 	 -0.267484 
-75.978870 	 -0.264837 
-74.957320 	 -0.265871 
-73.981540 	 -0.260558 
-72.991250 	 -0.254591 
-71.997440 	 -0.245475 
-71.031230 	 -0.233257 
-70.018970 	 -0.220760 
-69.039900 	 -0.207395 
-68.026020 	 -0.195365 
-67.014230 	 -0.187192 
-66.018620 	 -0.183623 
-64.995510 	 -0.180405 
-64.007660 	 -0.175358 
-63.010960 	 -0.167209 
-62.005150 	 -0.159080 
-61.007120 	 -0.151624 
-60.010910 	 -0.143806 
-59.008630 	 -0.140514 
-58.007150 	 -0.136064 
-57.017780 	 -0.130533 
-55.994450 	 -0.126398 
-54.951680 	 -0.120442 
-53.942580 	 -0.113508 
-52.931950 	 -0.107269 
-51.947450 	 -0.105643 
-50.978170 	 -0.101279 
-49.994120 	 -0.098659 
-49.004520 	 -0.093774 
-47.989320 	 -0.085518 
-47.000250 	 -0.078560 
-45.997920 	 -0.072347 
-44.994650 	 -0.071643 
-44.008550 	 -0.067258 
-42.998760 	 -0.063145 
-41.994130 	 -0.060886 
-41.000630 	 -0.056901 
-40.001270 	 -0.053540 
-39.001950 	 -0.049562 
-38.007630 	 -0.042995 
-36.991230 	 -0.038233 
-35.989110 	 -0.035010 
-34.975120 	 -0.032179 
-33.954450 	 -0.030681 
-32.945220 	 -0.026251 
-31.941640 	 -0.025120 
-30.938020 	 -0.023144 
-29.934110 	 -0.020761 
-28.940500 	 -0.017940 
-27.944630 	 -0.012769 
-26.957040 	 -0.008820 
-25.971820 	 -0.005541 
-24.995720 	 -0.003950 
-23.970860 	 -0.000419 
-22.978270 	 0.003318 
-21.960820 	 0.007037 
-20.957730 	 0.012357 
-19.984990 	 0.014623 
-19.002360 	 0.014617 
-18.033520 	 0.016965 
-17.025690 	 0.019666 
-16.026800 	 0.020425 
-15.000690 	 0.023729 
-13.973810 	 0.027431 
-12.966140 	 0.027323 
-11.952270 	 0.029267 
-10.963510 	 0.032085 
-9.964371 	 0.033329 
-8.976935 	 0.036455 
-7.994155 	 0.039729 
-6.980055 	 0.042652 
-5.990622 	 0.042756 
-4.984513 	 0.044993 
-3.988063 	 0.045592 
-3.036406 	 0.045304 
-2.050967 	 0.046567 
-1.073372 	 0.049731 
-0.089073 	 0.052413 
0.915153 	 0.056496 
1.913188 	 0.059815 
2.910051 	 0.058905 
3.916623 	 0.059733 
4.931598 	 0.059898 
5.903943 	 0.061435 
6.895820 	 0.061980 
7.864829 	 0.064112 
8.848352 	 0.064097 
9.839470 	 0.066013 
10.822330 	 0.068943 
11.840870 	 0.071184 
12.833840 	 0.073590 
13.838200 	 0.075390 
14.846240 	 0.076790 
15.844690 	 0.077328 
16.825500 	 0.078684 
17.841850 	 0.078476 
18.845890 	 0.079945 
19.836000 	 0.081099 
20.855730 	 0.084369 
21.841370 	 0.085580 
22.851210 	 0.086229 
23.849840 	 0.088214 
24.833690 	 0.087983 
25.842690 	 0.088797 
26.847790 	 0.090744 
27.844110 	 0.091318 
28.855170 	 0.093160 
29.827600 	 0.094559 
30.812190 	 0.095079 
31.829450 	 0.097628 
32.829400 	 0.100130 
33.853370 	 0.103244 
34.852480 	 0.104315 
35.825580 	 0.105404 
36.817390 	 0.104746 
37.787570 	 0.107461 
38.788670 	 0.112180 
39.805890 	 0.113406 
40.809190 	 0.115438 
41.831100 	 0.115026 
42.842050 	 0.113923 
43.821720 	 0.116473 
44.831560 	 0.118753 
45.838210 	 0.123592 
46.867400 	 0.128978 
47.893110 	 0.132458 
48.896600 	 0.134672 
49.894780 	 0.135156 
50.840110 	 0.136597 
51.838180 	 0.137498 
52.841430 	 0.139385 
53.831540 	 0.139414 
54.852810 	 0.140038 
55.829960 	 0.142873 
56.809400 	 0.144176 
57.799560 	 0.146235 
58.792270 	 0.146063 
59.817510 	 0.145519 
60.821160 	 0.147625 
61.822360 	 0.149128 
62.818910 	 0.151568 
63.811420 	 0.154030 
64.794490 	 0.157264 
65.817700 	 0.161809 
66.813470 	 0.165945 
67.798510 	 0.171089 
68.801510 	 0.173543 
69.789210 	 0.175778 
70.802240 	 0.178649 
71.816090 	 0.182158 
72.829880 	 0.185743 
73.830230 	 0.189119 
74.817090 	 0.190471 
75.811630 	 0.193682 
76.799860 	 0.197602 
77.800770 	 0.201576 
78.808860 	 0.209295 
79.794910 	 0.210760 
80.782700 	 0.213569 
81.782750 	 0.217745 
82.760130 	 0.220272 
83.771660 	 0.226376 
84.789670 	 0.232468 
85.792740 	 0.237987 
86.808350 	 0.245123 
87.804890 	 0.249183 
88.809570 	 0.254358 
89.804750 	 0.257727 
90.783470 	 0.260789 
91.787950 	 0.267275 
92.773630 	 0.274436 
93.763180 	 0.282404 
94.767500 	 0.288307 
95.753490 	 0.294770 
96.759230 	 0.301403 
97.785910 	 0.309645 
98.804370 	 0.318514 
99.820430 	 0.324281 
100.826900 	 0.330269 
101.785800 	 0.335565 
102.778900 	 0.341095 
103.782600 	 0.349647 
104.783300 	 0.355438 
105.803000 	 0.363439 
106.803600 	 0.373009 
107.789300 	 0.378525 
108.761100 	 0.386931 
109.761800 	 0.394562 
110.769600 	 0.403506 
111.775600 	 0.415442 
112.780700 	 0.425723 
113.778700 	 0.435785 
114.776000 	 0.445776 
115.776300 	 0.455894 
116.796100 	 0.467786 
117.792500 	 0.475907 
118.776600 	 0.482899 
119.794900 	 0.492664 
120.785700 	 0.499507 
121.775700 	 0.512742 
122.795700 	 0.524960 
123.776400 	 0.534793 
124.791000 	 0.548205 
125.809200 	 0.558330 
126.804900 	 0.569502 
127.796200 	 0.578836 
128.779000 	 0.588295 
129.791200 	 0.598546 
130.785300 	 0.606152 
131.774200 	 0.616617 
132.771000 	 0.625183 
133.753500 	 0.634187 
134.737900 	 0.648967 
135.770800 	 0.664820 
136.768100 	 0.685402 
137.752000 	 0.703520 
138.752600 	 0.716589 
139.705400 	 0.725576 
140.700700 	 0.731050 
141.704000 	 0.739143 
142.709300 	 0.752814 
143.746900 	 0.770364 
144.771800 	 0.791034 
145.770400 	 0.805182 
146.785200 	 0.817495 
147.780800 	 0.826732 
148.771200 	 0.835113 
149.777900 	 0.851187 
150.786900 	 0.865587 
151.784400 	 0.883272 
152.782700 	 0.898683 
153.788900 	 0.914285 
154.778200 	 0.932163 
155.780000 	 0.949819 
156.783800 	 0.965859 
157.766500 	 0.983012 
158.752600 	 1.001660 
159.753700 	 1.017978 
160.724000 	 1.036784 
161.735000 	 1.054297 
162.729800 	 1.070712 
163.706700 	 1.087001 
164.760200 	 1.101627 
165.757200 	 1.114159 
166.766100 	 1.126713 
167.784500 	 1.135680 
168.739700 	 1.144310 
169.739600 	 1.153978 
170.720100 	 1.161145 
171.701600 	 1.172818 
172.718100 	 1.189945 
173.747000 	 1.209907 
174.798900 	 1.227428 
175.807000 	 1.245471 
176.799500 	 1.255262 
177.761900 	 1.265192 
178.717500 	 1.276316 
179.701800 	 1.291007 
180.704600 	 1.309912 
181.707900 	 1.323972 
182.712100 	 1.339742 
183.745600 	 1.352691 
184.738300 	 1.366186 
185.741900 	 1.382883 
186.737500 	 1.402303 
187.742100 	 1.418627 
188.742100 	 1.431525 
189.746500 	 1.445602 
190.751900 	 1.458546 
191.706900 	 1.473396 
192.721000 	 1.490527 
193.743000 	 1.502620 
194.732700 	 1.510941 
195.769400 	 1.520235 
196.770000 	 1.528120 
197.758500 	 1.535879 
198.775800 	 1.542522 
199.790500 	 1.554885 
200.795800 	 1.569683 
201.792300 	 1.590165 
202.810300 	 1.610402 
203.799300 	 1.624595 
204.811500 	 1.634842 
205.803000 	 1.643210 
206.780500 	 1.652980 
207.762200 	 1.661134 
208.729400 	 1.670184 
209.728300 	 1.677439 
210.730000 	 1.684847 
211.740600 	 1.695442 
212.743500 	 1.704181 
213.756300 	 1.713912 
214.756300 	 1.723164 
215.741900 	 1.730372 
216.747000 	 1.738003 
217.716100 	 1.739535 
218.698000 	 1.738236 
219.724800 	 1.737206 
220.730200 	 1.739622 
221.736800 	 1.745723 
222.760800 	 1.754069 
223.729900 	 1.756546 
224.715600 	 1.757272 
225.725800 	 1.759578 
226.721400 	 1.755590 
227.733300 	 1.756480 
228.729900 	 1.758542 
229.720900 	 1.757343 
230.692100 	 1.763400 
231.680900 	 1.765967 
232.674200 	 1.770334 
233.687100 	 1.773785 
234.712000 	 1.770882 
235.718300 	 1.773813 
236.729500 	 1.773272 
237.718400 	 1.771481 
238.718300 	 1.774879 
239.725400 	 1.771905 
240.724800 	 1.768896 
241.735500 	 1.767923 
242.708600 	 1.767493 
243.716900 	 1.769122 
244.725400 	 1.770011 
245.699700 	 1.768495 
246.715300 	 1.766273 
247.687400 	 1.762663 
248.662800 	 1.758856 
249.692100 	 1.754535 
250.698900 	 1.747404 
251.710500 	 1.743067 
252.737000 	 1.736130 
253.702800 	 1.730816 
254.705000 	 1.731169 
255.680100 	 1.725428 
256.663600 	 1.720894 
257.698000 	 1.717197 
258.683500 	 1.708745 
259.691600 	 1.701919 
260.693100 	 1.696813 
261.652800 	 1.687899 
262.656400 	 1.680921 
263.646200 	 1.677138 
264.649000 	 1.670986 
265.663800 	 1.669200 
266.660200 	 1.666102 
267.678200 	 1.663763 
268.678500 	 1.660129 
269.692000 	 1.656450 
270.691200 	 1.654340 
271.691500 	 1.648902 
272.690600 	 1.645278 
273.682400 	 1.642095 
274.698400 	 1.638052 
275.708100 	 1.634801 
276.721700 	 1.632063 
277.714400 	 1.628098 
278.704500 	 1.624101 
279.693800 	 1.620661 
280.667300 	 1.617368 
281.687700 	 1.615451 
282.695800 	 1.614240 
283.705300 	 1.612710 
284.732100 	 1.610000 
285.728700 	 1.606976 
286.712300 	 1.603008 
287.710400 	 1.598811 
288.680300 	 1.595954 
289.675800 	 1.593296 
290.692700 	 1.589491 
291.688000 	 1.586105 
292.706500 	 1.583063 
293.690700 	 1.579233 
294.692600 	 1.575627 
295.695300 	 1.574413 
296.680600 	 1.572552 
297.691500 	 1.570781 
298.700600 	 1.569887 
299.704400 	 1.568215 
300.719700 	 1.567121 
301.738200 	 1.565635 
302.726400 	 1.567461 
303.735100 	 1.567171 
304.755300 	 1.567182 
305.746300 	 1.568140 
306.748400 	 1.566015 
307.728900 	 1.564939 
308.707400 	 1.564095 
309.672600 	 1.563203 
310.658400 	 1.561824 
311.663000 	 1.562296 
312.669200 	 1.561214 
313.702400 	 1.561830 
314.713200 	 1.561393 
315.726500 	 1.560845 
316.714300 	 1.561221 
317.693800 	 1.560999 
318.686600 	 1.564814 
319.662000 	 1.566408 
320.653900 	 1.567995 
321.672100 	 1.569382 
322.654100 	 1.568655 
323.675700 	 1.568106 
324.703500 	 1.569392 
325.703200 	 1.569249 
326.730200 	 1.568995 
327.715900 	 1.569323 
328.701900 	 1.567161 
329.689500 	 1.568810 
330.665900 	 1.567469 
331.671500 	 1.567484 
332.659400 	 1.569055 
333.644900 	 1.569405 
334.668800 	 1.574677 
335.670300 	 1.579155 
336.652700 	 1.582114 
337.679800 	 1.583869 
338.663400 	 1.582840 
339.634900 	 1.584525 
340.658400 	 1.588411 
341.649300 	 1.590939 
342.637000 	 1.597070 
343.667300 	 1.601992 
344.665700 	 1.603809 
345.659800 	 1.605936 
346.684000 	 1.607493 
347.680300 	 1.607048 
348.680900 	 1.610554 
349.681300 	 1.614137 
350.679200 	 1.617078 
351.678800 	 1.618838 
352.676000 	 1.621090 
353.696700 	 1.623811 
354.701000 	 1.625019 
355.712100 	 1.628766 
356.708200 	 1.629292 
357.702200 	 1.629561 
358.683000 	 1.631487 
359.666300 	 1.632611 
360.677300 	 1.636233 
361.682300 	 1.640088 
362.680300 	 1.643510 
363.679600 	 1.647690 
364.682200 	 1.651931 
365.674000 	 1.656550 
366.712000 	 1.661479 
367.708600 	 1.665892 
368.698900 	 1.668229 
369.694000 	 1.672497 
370.654800 	 1.674964 
371.653200 	 1.679917 
372.658300 	 1.684834 
373.666600 	 1.689018 
374.680700 	 1.695693 
375.688800 	 1.700055 
376.689800 	 1.704742 
377.691500 	 1.708107 
378.698600 	 1.712034 
379.706900 	 1.717116 
380.697500 	 1.722218 
381.682500 	 1.728217 
382.668900 	 1.734045 
383.646000 	 1.738215 
384.677000 	 1.744091 
385.705800 	 1.751821 
386.714400 	 1.756958 
387.724500 	 1.762714 
388.691800 	 1.768157 
389.665100 	 1.772375 
390.662100 	 1.777648 
391.665300 	 1.783623 
392.674700 	 1.788577 
393.698100 	 1.794226 
394.709900 	 1.795861 
395.719700 	 1.799453 
396.724800 	 1.803158 
397.703600 	 1.805120 
398.214200 	 1.787204 
398.244200 	 1.751525 
397.760600 	 1.701289 
396.799200 	 1.640622 
395.838000 	 1.592598 
394.843900 	 1.548280 
393.864700 	 1.508411 
392.854100 	 1.470760 
391.833600 	 1.436851 
390.822400 	 1.404956 
389.813400 	 1.375392 
388.813400 	 1.349420 
387.793900 	 1.321660 
386.787700 	 1.296089 
385.793000 	 1.273025 
384.797400 	 1.247921 
383.816900 	 1.228522 
382.840700 	 1.211045 
381.827300 	 1.191894 
380.849800 	 1.173632 
379.846600 	 1.153376 
378.832900 	 1.134594 
377.839600 	 1.117330 
376.817100 	 1.101809 
375.823400 	 1.086410 
374.836300 	 1.071214 
373.837000 	 1.057553 
372.850400 	 1.045133 
371.851200 	 1.033419 
370.846700 	 1.019570 
369.855100 	 1.005626 
368.867400 	 0.991615 
367.859200 	 0.979000 
366.838200 	 0.969063 
365.833300 	 0.960844 
364.806900 	 0.951764 
363.832900 	 0.941810 
362.853200 	 0.932111 
361.856700 	 0.922133 
360.859200 	 0.910931 
359.830600 	 0.902271 
358.810500 	 0.893054 
357.831100 	 0.883395 
356.849400 	 0.876965 
355.876600 	 0.869290 
354.904200 	 0.861253 
353.895700 	 0.852914 
352.886300 	 0.844800 
351.869600 	 0.836310 
350.866100 	 0.828338 
349.830000 	 0.823093 
348.822300 	 0.816462 
347.794000 	 0.810589 
346.779100 	 0.805446 
345.781500 	 0.798870 
344.787100 	 0.793202 
343.823900 	 0.788257 
342.822900 	 0.781337 
341.837100 	 0.776318 
340.831500 	 0.770940 
339.805400 	 0.764481 
338.792100 	 0.761701 
337.785100 	 0.756752 
336.797500 	 0.752924 
335.803700 	 0.750579 
334.827600 	 0.745279 
333.847300 	 0.739713 
332.855300 	 0.733187 
331.871000 	 0.725821 
330.857400 	 0.717697 
329.852500 	 0.712273 
328.837500 	 0.706700 
327.842000 	 0.707328 
326.857000 	 0.711221 
325.859700 	 0.714260 
324.880000 	 0.717018 
323.866300 	 0.712121 
322.868200 	 0.706856 
321.874800 	 0.699929 
320.864800 	 0.693481 
319.845400 	 0.689431 
318.840800 	 0.686155 
317.856100 	 0.683201 
316.846700 	 0.682224 
315.875600 	 0.680139 
314.871800 	 0.678157 
313.863900 	 0.676642 
312.875400 	 0.673960 
311.865700 	 0.668890 
310.882600 	 0.658259 
309.867800 	 0.653164 
308.871300 	 0.648616 
307.877200 	 0.646291 
306.874400 	 0.646150 
305.893100 	 0.640630 
304.881600 	 0.634320 
303.887100 	 0.629618 
302.876900 	 0.627661 
301.866500 	 0.624857 
300.860800 	 0.620613 
299.848000 	 0.619657 
298.842100 	 0.615353 
297.813900 	 0.610021 
296.818300 	 0.607328 
295.827500 	 0.603393 
294.835400 	 0.600051 
293.864700 	 0.598511 
292.881200 	 0.594795 
291.874800 	 0.589251 
290.857500 	 0.585885 
289.850300 	 0.582590 
288.834400 	 0.579951 
287.831400 	 0.576155 
286.844000 	 0.572104 
285.835000 	 0.565970 
284.845200 	 0.560349 
283.853000 	 0.554556 
282.853700 	 0.549597 
281.872300 	 0.549528 
280.854300 	 0.547365 
279.854900 	 0.546359 
278.863300 	 0.542334 
277.840500 	 0.533443 
276.875100 	 0.528407 
275.871300 	 0.521641 
274.879300 	 0.516414 
273.903000 	 0.514929 
272.877000 	 0.511499 
271.878700 	 0.507913 
270.873400 	 0.504943 
269.865500 	 0.499652 
268.864000 	 0.494895 
267.868700 	 0.489895 
266.868000 	 0.485232 
265.871200 	 0.481836 
264.863700 	 0.477606 
263.865800 	 0.474225 
262.874400 	 0.470306 
261.869300 	 0.465345 
260.879400 	 0.458684 
259.887500 	 0.451440 
258.864100 	 0.444069 
257.864700 	 0.436234 
256.860800 	 0.431701 
255.867700 	 0.428281 
254.891400 	 0.424537 
253.904200 	 0.421772 
252.921700 	 0.416832 
251.915800 	 0.409759 
250.911800 	 0.402322 
249.895100 	 0.395956 
248.890600 	 0.389479 
247.872500 	 0.384892 
246.849200 	 0.380360 
245.836000 	 0.374016 
244.843700 	 0.368935 
243.837000 	 0.362750 
242.834100 	 0.356905 
241.853900 	 0.351476 
240.846800 	 0.343569 
239.846300 	 0.335450 
238.852400 	 0.327736 
237.828400 	 0.320623 
236.802300 	 0.316110 
235.799500 	 0.310770 
234.792100 	 0.305576 
233.807100 	 0.297908 
232.830200 	 0.288759 
231.830600 	 0.282427 
230.851400 	 0.275888 
229.860800 	 0.271280 
228.871300 	 0.267779 
227.879200 	 0.262128 
226.867000 	 0.256319 
225.881200 	 0.248433 
224.880200 	 0.238365 
223.886900 	 0.230223 
222.899000 	 0.221563 
221.881500 	 0.213300 
220.865300 	 0.205906 
219.865400 	 0.195826 
218.849500 	 0.185427 
217.861000 	 0.176018 
216.867000 	 0.162349 
215.896900 	 0.149594 
214.915200 	 0.135438 
213.913300 	 0.121367 
212.934000 	 0.112401 
211.913300 	 0.101932 
210.910700 	 0.092877 
209.912400 	 0.084272 
208.905900 	 0.074362 
207.911600 	 0.066402 
206.929100 	 0.057776 
205.945700 	 0.049053 
204.959400 	 0.040770 
203.967200 	 0.031086 
202.968600 	 0.021905 
201.969800 	 0.011534 
200.954200 	 -0.001116 
199.953500 	 -0.013609 
198.947700 	 -0.026145 
197.922200 	 -0.037575 
196.917900 	 -0.048025 
195.910000 	 -0.057867 
194.916000 	 -0.067639 
193.927900 	 -0.079660 
192.941100 	 -0.090519 
191.935500 	 -0.101970 
190.933100 	 -0.115533 
189.929500 	 -0.128753 
188.921200 	 -0.141202 
187.917200 	 -0.154757 
186.910500 	 -0.167370 
185.909200 	 -0.180035 
184.897100 	 -0.193525 
183.907300 	 -0.204955 
182.908000 	 -0.216206 
181.906100 	 -0.228177 
180.908400 	 -0.239368 
179.901200 	 -0.251666 
178.898200 	 -0.262755 
177.919600 	 -0.270052 
176.952000 	 -0.281458 
175.965700 	 -0.291089 
174.971900 	 -0.301030 
173.953700 	 -0.312934 
172.922500 	 -0.321748 
171.910000 	 -0.333505 
170.899500 	 -0.345871 
169.896300 	 -0.358067 
168.901000 	 -0.369877 
167.915600 	 -0.378924 
166.919700 	 -0.386577 
165.924900 	 -0.391650 
164.941800 	 -0.398242 
163.930300 	 -0.408123 
162.941300 	 -0.419593 
161.945300 	 -0.432540 
160.923000 	 -0.446221 
159.930100 	 -0.457928 
158.931000 	 -0.466538 
157.939500 	 -0.475880 
156.941700 	 -0.483201 
155.948600 	 -0.490698 
154.949200 	 -0.500506 
153.946800 	 -0.511759 
152.951800 	 -0.522896 
151.949300 	 -0.532497 
150.933000 	 -0.544609 
149.920500 	 -0.553953 
148.930900 	 -0.562977 
147.915100 	 -0.572411 
146.927500 	 -0.579022 
145.931400 	 -0.586539 
144.923500 	 -0.594577 
143.931000 	 -0.603632 
142.939800 	 -0.611329 
141.935200 	 -0.619811 
140.927100 	 -0.623646 
139.924500 	 -0.626909 
138.904200 	 -0.630830 
137.893600 	 -0.635729 
136.896800 	 -0.643848 
135.892600 	 -0.649288 
134.908100 	 -0.654600 
133.919600 	 -0.657406 
132.923200 	 -0.660816 
131.932400 	 -0.666433 
130.906400 	 -0.672176 
129.917700 	 -0.679118 
128.912100 	 -0.684708 
127.900700 	 -0.690687 
126.925600 	 -0.696253 
125.921300 	 -0.701207 
124.929800 	 -0.705592 
123.945200 	 -0.708135 
122.933200 	 -0.714334 
121.927500 	 -0.717629 
120.918400 	 -0.719608 
119.918800 	 -0.721221 
118.928800 	 -0.721897 
117.930400 	 -0.723706 
116.945300 	 -0.725113 
115.951400 	 -0.726556 
114.961900 	 -0.724764 
113.967100 	 -0.721392 
112.957100 	 -0.720527 
111.954800 	 -0.720243 
110.934400 	 -0.722147 
109.932800 	 -0.726832 
108.925600 	 -0.730906 
107.919100 	 -0.733575 
106.926200 	 -0.732236 
105.936900 	 -0.731710 
104.955600 	 -0.731049 
103.977700 	 -0.730865 
102.992800 	 -0.733468 
101.978300 	 -0.732225 
100.994500 	 -0.731181 
99.974490 	 -0.732043 
98.972960 	 -0.729757 
98.007910 	 -0.729249 
96.989240 	 -0.728690 
95.980500 	 -0.726187 
94.988950 	 -0.725512 
93.979790 	 -0.725854 
92.983640 	 -0.725882 
91.963590 	 -0.726739 
90.928390 	 -0.727145 
89.902730 	 -0.726752 
88.877940 	 -0.726765 
87.917870 	 -0.726031 
86.911740 	 -0.725781 
85.911860 	 -0.726140 
84.928090 	 -0.724762 
83.897870 	 -0.723494 
82.906830 	 -0.721020 
81.914030 	 -0.719288 
80.902560 	 -0.716530 
79.904370 	 -0.715412 
78.921180 	 -0.714679 
77.915590 	 -0.711022 
76.933250 	 -0.711582 
75.962160 	 -0.711628 
74.974710 	 -0.709102 
74.002660 	 -0.708960 
73.001600 	 -0.707289 
71.998350 	 -0.703538 
70.999490 	 -0.702287 
69.964200 	 -0.701305 
68.994770 	 -0.698370 
67.993530 	 -0.697013 
66.991040 	 -0.695624 
66.009610 	 -0.694634 
64.978390 	 -0.694565 
63.979370 	 -0.692894 
62.982150 	 -0.691649 
61.979940 	 -0.689415 
60.982760 	 -0.686577 
59.978600 	 -0.684906 
58.966730 	 -0.682069 
57.986920 	 -0.679042 
56.998400 	 -0.676268 
55.985320 	 -0.671836 
54.993110 	 -0.667848 
53.962090 	 -0.664288 
52.957600 	 -0.659665 
51.996150 	 -0.656246 
51.016110 	 -0.653644 
50.036110 	 -0.651741 
49.051480 	 -0.651779 
48.036870 	 -0.650766 
47.021970 	 -0.649319 
46.014600 	 -0.646258 
44.996780 	 -0.643187 
43.985390 	 -0.642445 
42.973470 	 -0.642739 
41.974970 	 -0.643989 
40.956730 	 -0.646441 
39.970410 	 -0.646760 
38.983470 	 -0.647127 
37.984180 	 -0.646415 
37.025130 	 -0.642941 
36.011690 	 -0.638904 
34.984280 	 -0.633004 
33.997110 	 -0.626867 
32.967750 	 -0.620682 
31.970760 	 -0.615872 
31.008570 	 -0.615011 
30.013800 	 -0.616644 
29.026500 	 -0.621617 
28.035200 	 -0.626753 
27.012990 	 -0.626287 
25.993110 	 -0.625727 
24.996930 	 -0.625521 
23.999640 	 -0.625230 
22.989280 	 -0.627821 
21.994780 	 -0.625516 
21.000640 	 -0.618421 
19.997380 	 -0.613627 
19.025820 	 -0.609493 
18.056630 	 -0.608308 
17.052680 	 -0.611834 
16.050440 	 -0.612353 
15.049350 	 -0.612179 
14.015680 	 -0.611028 
13.020370 	 -0.611122 
12.031850 	 -0.612545 
11.025890 	 -0.614382 
10.034900 	 -0.616835 
9.025690 	 -0.616885 
8.013060 	 -0.616364 
7.003715 	 -0.615450 
5.992917 	 -0.615102 
5.006654 	 -0.613743 
4.014166 	 -0.613630 
3.044050 	 -0.614215 
2.071028 	 -0.616386 
1.078754 	 -0.617710 
0.089470 	 -0.617253 
-0.892220 	 -0.617327 
-1.847659 	 -0.615349 
-2.819971 	 -0.614881 
-3.777061 	 -0.617149 
-4.764628 	 -0.618193 
-5.763654 	 -0.619731 
-6.761640 	 -0.619976 
-7.767303 	 -0.617928 
-8.796262 	 -0.617174 
-9.827318 	 -0.617302 
-10.857580 	 -0.618719 
-11.868890 	 -0.621665 
-12.844440 	 -0.622361 
-13.832980 	 -0.622912 
-14.834100 	 -0.624026 
-15.852960 	 -0.625114 
-16.874880 	 -0.627753 
-17.887530 	 -0.628073 
-18.873000 	 -0.629232 
-19.854410 	 -0.630446 
-20.839470 	 -0.630356 
-21.826360 	 -0.632413 
-22.818730 	 -0.634760 
-23.810380 	 -0.636444 
-24.809800 	 -0.633767 
-25.810610 	 -0.633261 
-26.807210 	 -0.631571 
-27.809060 	 -0.631976 
-28.835080 	 -0.637004 
-29.832070 	 -0.640299 
-30.848530 	 -0.643496 
-31.866940 	 -0.644102 
-32.840510 	 -0.645900 
-33.854460 	 -0.646379 
-34.857730 	 -0.646757 
-35.864800 	 -0.647378 
-36.859840 	 -0.648444 
-37.846210 	 -0.647921 
-38.837410 	 -0.649582 
-39.814610 	 -0.652590 
-40.809350 	 -0.655108 
-41.803020 	 -0.661185 
-42.786340 	 -0.664309 
-43.800950 	 -0.668059 
-44.807570 	 -0.671085 
-45.804270 	 -0.672984 
-46.819310 	 -0.677574 
-47.812760 	 -0.678942 
-48.812560 	 -0.681877 
-49.818490 	 -0.684326 
-50.790200 	 -0.684995 
-51.784230 	 -0.686811 
-52.771910 	 -0.688586 
-53.781940 	 -0.693463 
-54.825650 	 -0.698552 
-55.819310 	 -0.703813 
-56.842180 	 -0.708809 
-57.836240 	 -0.710513 
-58.807320 	 -0.711957 
-59.810440 	 -0.716684 
-60.828170 	 -0.720660 
-61.845020 	 -0.727006 
-62.877560 	 -0.733746 
-63.886520 	 -0.738100 
-64.867310 	 -0.743196 
-65.866040 	 -0.748561 
-66.855190 	 -0.753203 
-67.866300 	 -0.758121 
-68.863100 	 -0.763982 
-69.878430 	 -0.767941 
-70.878110 	 -0.772456 
-71.864910 	 -0.776474 
-72.859240 	 -0.779803 
-73.837980 	 -0.786239 
-74.831380 	 -0.791435 
-75.840850 	 -0.797614 
-76.842800 	 -0.803506 
-77.832110 	 -0.807874 
-78.811850 	 -0.813730 
-79.806780 	 -0.819874 
-80.823840 	 -0.826547 
-81.848080 	 -0.832320 
-82.867640 	 -0.840001 
-83.863680 	 -0.847094 
-84.835270 	 -0.852924 
-85.810230 	 -0.861704 
-86.798360 	 -0.869776 
-87.792040 	 -0.876544 
-88.820140 	 -0.886629 
-89.856520 	 -0.893998 
-90.854340 	 -0.900286 
-91.849190 	 -0.908964 
-92.842740 	 -0.916249 
-93.806470 	 -0.923366 
-94.803900 	 -0.931591 
-95.809670 	 -0.939453 
-96.795420 	 -0.945837 
-97.806820 	 -0.955518 
