WE1 Volts(mV)    WE1 Idir (uA) 
199.238900 	 0.012166 
199.485100 	 0.028559 
199.979900 	 0.052211 
200.730700 	 0.079986 
201.741200 	 0.114426 
202.741100 	 0.136041 
203.740700 	 0.154115 
204.747600 	 0.170918 
205.738400 	 0.184897 
206.770000 	 0.197683 
207.766800 	 0.210508 
208.763900 	 0.223697 
209.754000 	 0.235246 
210.724800 	 0.243870 
211.715100 	 0.252637 
212.698500 	 0.259933 
213.695200 	 0.266964 
214.685800 	 0.276300 
215.695100 	 0.284321 
216.688800 	 0.290573 
217.677500 	 0.298621 
218.651000 	 0.305927 
219.654800 	 0.314523 
220.657900 	 0.324625 
221.690200 	 0.332258 
222.723500 	 0.337382 
223.712800 	 0.340603 
224.728000 	 0.343927 
225.732100 	 0.349249 
226.721800 	 0.354955 
227.719000 	 0.361098 
228.715500 	 0.367903 
229.677600 	 0.372216 
230.670300 	 0.379203 
231.667100 	 0.386823 
232.665200 	 0.392445 
233.672700 	 0.398731 
234.654700 	 0.403854 
235.647600 	 0.407710 
236.643100 	 0.410717 
237.653700 	 0.414233 
238.668300 	 0.418727 
239.666600 	 0.422790 
240.642200 	 0.429222 
241.630100 	 0.434552 
242.615300 	 0.437000 
243.608700 	 0.442952 
244.638700 	 0.444355 
245.631700 	 0.447915 
246.636600 	 0.454829 
247.642100 	 0.457650 
248.604400 	 0.463793 
249.625400 	 0.468794 
250.631500 	 0.472135 
251.646500 	 0.477156 
252.673200 	 0.482927 
253.655800 	 0.486916 
254.665600 	 0.491843 
255.674800 	 0.496878 
256.670300 	 0.499366 
257.688000 	 0.504855 
258.666000 	 0.507883 
259.646100 	 0.511313 
260.637600 	 0.515926 
261.604400 	 0.518511 
262.626700 	 0.524019 
263.640500 	 0.528473 
264.660300 	 0.533681 
265.695400 	 0.539096 
266.669000 	 0.541941 
267.651200 	 0.544197 
268.618200 	 0.547891 
269.578000 	 0.553009 
270.597700 	 0.561320 
271.600900 	 0.567183 
272.612300 	 0.570525 
273.640600 	 0.573377 
274.645500 	 0.573786 
275.665000 	 0.577134 
276.675100 	 0.580904 
277.680300 	 0.583621 
278.667300 	 0.587789 
279.639500 	 0.592112 
280.637000 	 0.597289 
281.626300 	 0.604357 
282.639300 	 0.609797 
283.643300 	 0.614254 
284.645900 	 0.617989 
285.646300 	 0.619388 
286.635700 	 0.621489 
287.639900 	 0.624477 
288.619400 	 0.628758 
289.610900 	 0.635125 
290.608100 	 0.641155 
291.618100 	 0.647840 
292.641300 	 0.655071 
293.640700 	 0.660550 
294.655600 	 0.667698 
295.671300 	 0.673340 
296.666000 	 0.677707 
297.640600 	 0.682048 
298.633300 	 0.685029 
299.595700 	 0.688549 
300.593500 	 0.692902 
301.626500 	 0.699842 
302.650900 	 0.708395 
303.690300 	 0.716213 
304.688900 	 0.723975 
305.732200 	 0.730270 
306.710800 	 0.734592 
307.691100 	 0.742302 
308.696000 	 0.749184 
309.646000 	 0.753777 
310.648200 	 0.758928 
311.638400 	 0.763239 
312.624800 	 0.767192 
313.640200 	 0.773634 
314.643100 	 0.780833 
315.657000 	 0.786977 
316.664900 	 0.792706 
317.638500 	 0.798196 
318.618000 	 0.804880 
319.606100 	 0.811357 
320.585600 	 0.819792 
321.611100 	 0.827055 
322.641000 	 0.831366 
323.657600 	 0.836830 
324.686800 	 0.841974 
325.682900 	 0.849113 
326.664200 	 0.856549 
327.629200 	 0.864214 
328.616500 	 0.871649 
329.597400 	 0.878979 
330.596100 	 0.887496 
331.634700 	 0.896610 
332.632400 	 0.905892 
333.621100 	 0.913984 
334.617100 	 0.922722 
335.589200 	 0.928204 
336.579200 	 0.932752 
337.603500 	 0.939097 
338.596900 	 0.945439 
339.618300 	 0.953614 
340.633000 	 0.964268 
341.625200 	 0.974906 
342.641900 	 0.984863 
343.608700 	 0.994664 
344.598800 	 1.003025 
345.606500 	 1.011042 
346.592100 	 1.019563 
347.626300 	 1.027842 
348.633100 	 1.035608 
349.612300 	 1.043022 
350.620300 	 1.051412 
351.594800 	 1.061367 
352.604900 	 1.073083 
353.647800 	 1.085333 
354.668600 	 1.096166 
355.710100 	 1.105811 
356.698900 	 1.115728 
357.662000 	 1.125748 
358.639200 	 1.137290 
359.600200 	 1.148003 
360.591700 	 1.157364 
361.587100 	 1.167161 
362.578600 	 1.177199 
363.583900 	 1.188594 
364.591200 	 1.201550 
365.617200 	 1.214189 
366.638100 	 1.225022 
367.623400 	 1.235782 
368.617000 	 1.246877 
369.630900 	 1.260096 
370.616000 	 1.274660 
371.629900 	 1.288958 
372.643700 	 1.302761 
373.628600 	 1.314577 
374.615800 	 1.327068 
375.606100 	 1.340802 
376.590400 	 1.354154 
377.588300 	 1.369005 
378.589400 	 1.384563 
379.606300 	 1.400427 
380.615400 	 1.417607 
381.632400 	 1.435211 
382.658700 	 1.452448 
383.668500 	 1.469213 
384.664900 	 1.485366 
385.668200 	 1.501098 
386.652500 	 1.515092 
387.633400 	 1.531134 
388.645000 	 1.549404 
389.622400 	 1.568489 
390.619600 	 1.591645 
391.633300 	 1.618273 
392.628100 	 1.642984 
393.629800 	 1.666849 
394.630400 	 1.688389 
395.613700 	 1.708049 
396.612000 	 1.728078 
397.603100 	 1.749302 
398.616900 	 1.772318 
399.622100 	 1.793003 
400.593500 	 1.816447 
401.619700 	 1.841457 
402.618500 	 1.866786 
403.625900 	 1.892745 
404.680000 	 1.921713 
405.682700 	 1.952114 
406.671300 	 1.980775 
407.670200 	 2.016169 
408.654900 	 2.050096 
409.631400 	 2.079983 
410.643600 	 2.114486 
411.634300 	 2.141702 
412.642200 	 2.174654 
413.652300 	 2.204751 
414.652000 	 2.242656 
415.666100 	 2.279901 
416.639100 	 2.315481 
417.648400 	 2.357670 
418.652000 	 2.400388 
419.655500 	 2.446928 
420.683700 	 2.496080 
421.680300 	 2.545346 
422.692300 	 2.588880 
423.702000 	 2.638491 
424.679700 	 2.682944 
425.675400 	 2.735455 
426.649500 	 2.784287 
427.616500 	 2.837065 
428.618600 	 2.892287 
429.600900 	 2.948168 
430.608900 	 3.010426 
431.631600 	 3.071698 
432.622900 	 3.133808 
433.638200 	 3.196149 
434.620600 	 3.259212 
435.619600 	 3.321792 
436.618300 	 3.388661 
437.607400 	 3.455758 
438.623000 	 3.529697 
439.614700 	 3.605226 
440.601100 	 3.684179 
441.603100 	 3.769754 
442.608900 	 3.854686 
443.618900 	 3.943033 
444.648300 	 4.033296 
445.653700 	 4.122668 
446.648000 	 4.211290 
447.620200 	 4.303531 
448.588700 	 4.396067 
449.570500 	 4.494654 
450.547800 	 4.595142 
451.557900 	 4.701565 
452.584700 	 4.813649 
453.597400 	 4.925172 
454.615500 	 5.043775 
455.630600 	 5.162758 
456.639100 	 5.281100 
457.624900 	 5.403603 
458.623000 	 5.525807 
459.607100 	 5.648406 
460.574300 	 5.775035 
461.573900 	 5.906662 
462.579200 	 6.045791 
463.571800 	 6.187739 
464.592700 	 6.333620 
465.608900 	 6.482456 
466.575200 	 6.623528 
467.572500 	 6.770098 
468.560400 	 6.921843 
469.546700 	 7.072796 
470.546900 	 7.233199 
471.560800 	 7.395990 
472.566000 	 7.555735 
473.568500 	 7.717414 
474.597700 	 7.881372 
475.575900 	 8.042834 
476.582300 	 8.202625 
477.581500 	 8.360731 
478.565600 	 8.520559 
479.556400 	 8.680230 
480.557300 	 8.844552 
481.575400 	 9.019313 
482.585900 	 9.185430 
483.616200 	 9.349694 
484.614000 	 9.512232 
485.593700 	 9.663656 
486.583500 	 9.816740 
487.558200 	 9.975771 
488.551400 	 10.135980 
489.532100 	 10.301780 
490.536500 	 10.473020 
491.553400 	 10.650500 
492.565400 	 10.833610 
493.584200 	 11.020200 
494.595500 	 11.215040 
495.597200 	 11.405100 
496.569200 	 11.591670 
497.556600 	 11.782810 
498.519800 	 11.969550 
499.511400 	 12.163960 
500.521300 	 12.369880 
501.538800 	 12.581050 
502.572500 	 12.800640 
503.571400 	 13.022870 
504.574200 	 13.245060 
505.589100 	 13.469050 
506.585400 	 13.692370 
507.611600 	 13.920670 
508.617300 	 14.150200 
509.597100 	 14.377630 
510.595800 	 14.610530 
511.587200 	 14.847150 
512.595500 	 15.089690 
513.604900 	 15.341410 
514.606800 	 15.592580 
515.592900 	 15.842720 
516.580600 	 16.091390 
517.568400 	 16.336160 
518.569500 	 16.589690 
519.575700 	 16.850900 
520.594100 	 17.117370 
521.589600 	 17.394110 
522.590900 	 17.668440 
523.587000 	 17.942010 
524.561200 	 18.218620 
525.549700 	 18.494340 
526.547500 	 18.770900 
527.523700 	 19.045850 
528.524000 	 19.323230 
529.534800 	 19.606500 
530.528300 	 19.893360 
531.555400 	 20.193410 
532.583300 	 20.501560 
533.592100 	 20.802960 
534.602800 	 21.107980 
535.587500 	 21.405750 
536.567300 	 21.689540 
537.562300 	 21.981140 
538.548300 	 22.274300 
539.544400 	 22.572220 
540.535600 	 22.878760 
541.525100 	 23.193670 
542.532800 	 23.513230 
543.542100 	 23.830840 
544.552100 	 24.153690 
545.563100 	 24.472660 
546.571800 	 24.775040 
547.550300 	 25.077350 
548.531000 	 25.381330 
549.518700 	 25.679290 
550.478300 	 25.995940 
551.502000 	 26.323240 
552.504400 	 26.646020 
553.503200 	 26.975390 
554.535600 	 27.300240 
555.530600 	 27.619500 
556.530300 	 27.937740 
557.521400 	 28.256910 
558.520600 	 28.584000 
559.511900 	 28.901070 
560.517700 	 29.218620 
561.545900 	 29.539040 
562.531300 	 29.844740 
563.528600 	 30.160160 
564.534500 	 30.482080 
565.520900 	 30.791020 
566.524300 	 31.100340 
567.527800 	 31.410190 
568.510400 	 31.714620 
569.510300 	 32.026710 
570.514200 	 32.342240 
571.534400 	 32.662110 
572.558300 	 32.976520 
573.557900 	 33.281410 
574.556900 	 33.585300 
575.562800 	 33.872890 
576.560500 	 34.151230 
577.565600 	 34.438690 
578.544200 	 34.714760 
579.517500 	 34.990770 
580.511000 	 35.277540 
581.520900 	 35.559640 
582.548800 	 35.848430 
583.574200 	 36.137220 
584.587800 	 36.415470 
585.574100 	 36.681590 
586.564100 	 36.927840 
587.555700 	 37.166600 
588.532400 	 37.403830 
589.522600 	 37.639380 
590.533000 	 37.888690 
591.520500 	 38.140370 
592.520600 	 38.386640 
593.544600 	 38.633940 
594.541600 	 38.865230 
595.549400 	 39.088380 
596.567400 	 39.303700 
597.564800 	 39.504530 
598.569800 	 39.705810 
599.569600 	 39.898910 
600.550700 	 40.089740 
601.556700 	 40.292390 
602.539900 	 40.491230 
603.545900 	 40.686240 
604.554800 	 40.874980 
605.563000 	 41.042980 
606.562400 	 41.199200 
607.567300 	 41.348380 
608.581700 	 41.495530 
609.585100 	 41.647960 
610.617500 	 41.786590 
611.626900 	 41.929370 
612.629700 	 42.063970 
613.611800 	 42.177630 
614.584900 	 42.300190 
615.575100 	 42.407600 
616.553300 	 42.497280 
617.538300 	 42.586360 
618.553100 	 42.666870 
619.541100 	 42.741630 
620.540000 	 42.823070 
621.550200 	 42.907180 
622.549400 	 42.992640 
623.561200 	 43.063460 
624.574200 	 43.125210 
625.585000 	 43.176460 
626.569500 	 43.198430 
627.556600 	 43.225100 
628.528300 	 43.253400 
629.503400 	 43.268010 
630.491300 	 43.294520 
631.483600 	 43.323720 
632.490000 	 43.339320 
633.510600 	 43.354610 
634.531700 	 43.364800 
635.541600 	 43.358620 
636.542500 	 43.335940 
637.536300 	 43.304580 
638.510700 	 43.270050 
639.468400 	 43.227000 
640.445700 	 43.194000 
641.435900 	 43.173910 
642.438200 	 43.139280 
643.456300 	 43.101520 
644.487900 	 43.059930 
645.486500 	 42.994140 
646.483800 	 42.924850 
647.498600 	 42.856260 
648.488000 	 42.780560 
649.478100 	 42.704790 
650.477200 	 42.628900 
651.485200 	 42.554170 
652.505500 	 42.475470 
653.486200 	 42.391600 
654.512000 	 42.310270 
655.499300 	 42.212070 
656.477600 	 42.105290 
657.491000 	 42.002010 
658.478800 	 41.888000 
659.493300 	 41.776770 
660.528100 	 41.673200 
661.548100 	 41.564820 
662.550500 	 41.455430 
663.557800 	 41.341220 
664.537200 	 41.218310 
665.536700 	 41.089040 
666.508500 	 40.951990 
667.497400 	 40.816960 
668.476200 	 40.681600 
669.468900 	 40.543900 
670.480200 	 40.415760 
671.467100 	 40.285300 
672.496800 	 40.154020 
673.508400 	 40.025130 
674.545200 	 39.886380 
675.559100 	 39.742610 
676.541300 	 39.592790 
677.511400 	 39.435480 
678.473400 	 39.285350 
679.450000 	 39.137470 
680.447400 	 38.994400 
681.465600 	 38.857600 
682.481100 	 38.715140 
683.508500 	 38.569590 
684.508000 	 38.422410 
685.511500 	 38.269710 
686.501500 	 38.117560 
687.477900 	 37.962170 
688.457300 	 37.807140 
689.447700 	 37.654180 
690.433000 	 37.500020 
691.441500 	 37.355860 
692.467100 	 37.214260 
693.462200 	 37.067580 
694.475000 	 36.923830 
695.463900 	 36.773200 
696.455700 	 36.615250 
697.453900 	 36.462970 
698.458900 	 36.310710 
699.472500 	 36.159640 
700.476400 	 36.012710 
701.485100 	 35.862770 
702.487700 	 35.719360 
703.486800 	 35.571460 
704.486300 	 35.430600 
705.496000 	 35.291380 
706.498500 	 35.148560 
707.493200 	 35.009930 
708.489600 	 34.867920 
709.475600 	 34.725850 
710.475200 	 34.584260 
711.499500 	 34.446640 
712.517100 	 34.309960 
713.532300 	 34.170840 
714.525500 	 34.030230 
715.499300 	 33.890590 
716.483900 	 33.750030 
717.473000 	 33.614980 
718.502700 	 33.486130 
719.511600 	 33.355440 
720.517600 	 33.226770 
721.532700 	 33.102670 
722.513800 	 32.973710 
723.510100 	 32.845960 
724.513900 	 32.722500 
725.494500 	 32.592650 
726.468000 	 32.465930 
727.467600 	 32.341160 
728.442700 	 32.214880 
729.442100 	 32.093490 
730.471700 	 31.976710 
731.479600 	 31.862960 
732.496500 	 31.747120 
733.504300 	 31.631390 
734.508300 	 31.515260 
735.510400 	 31.396550 
736.500500 	 31.280410 
737.507300 	 31.169450 
738.484000 	 31.056100 
739.473000 	 30.945810 
740.477500 	 30.840780 
741.463900 	 30.732750 
742.485800 	 30.630030 
743.497800 	 30.527170 
744.516400 	 30.422720 
745.521100 	 30.317570 
746.519500 	 30.211760 
747.500200 	 30.107110 
748.463900 	 30.004120 
749.452500 	 29.903260 
750.450900 	 29.808210 
751.444900 	 29.713290 
752.466400 	 29.618780 
753.484700 	 29.526610 
754.466900 	 29.429660 
755.480600 	 29.335360 
756.499400 	 29.244050 
757.502900 	 29.151670 
758.496500 	 29.061290 
759.492900 	 28.971380 
760.473900 	 28.880570 
761.470800 	 28.793430 
762.516600 	 28.708100 
763.553900 	 28.624390 
764.574600 	 28.539650 
765.555800 	 28.453420 
766.512700 	 28.367900 
767.474400 	 28.282580 
768.449800 	 28.201720 
769.468000 	 28.124270 
770.475000 	 28.045870 
771.495300 	 27.967610 
772.504200 	 27.888980 
773.498400 	 27.808310 
774.502900 	 27.731850 
775.509200 	 27.656440 
776.515700 	 27.580800 
777.497200 	 27.506490 
778.493400 	 27.431240 
779.462200 	 27.357910 
780.450700 	 27.286670 
781.479200 	 27.216420 
782.495800 	 27.146450 
783.523500 	 27.075200 
784.535500 	 27.004420 
785.545600 	 26.935190 
786.526300 	 26.865780 
787.520800 	 26.800140 
788.518000 	 26.735400 
789.506500 	 26.669720 
790.497600 	 26.608350 
791.480000 	 26.546230 
792.476300 	 26.484300 
793.486100 	 26.422470 
794.497300 	 26.360420 
795.520400 	 26.296710 
796.520100 	 26.233390 
797.482800 	 26.170620 
798.021000 	 26.062600 
798.031400 	 25.931410 
797.549300 	 25.780110 
796.601700 	 25.615260 
795.600700 	 25.478670 
794.610000 	 25.355010 
793.632300 	 25.238260 
792.627800 	 25.124240 
791.636800 	 25.015580 
790.626600 	 24.907640 
789.621300 	 24.804570 
788.639300 	 24.705580 
787.637900 	 24.609220 
786.640000 	 24.516660 
785.658800 	 24.424710 
784.644300 	 24.331750 
783.639700 	 24.241390 
782.654200 	 24.151880 
781.620400 	 24.062800 
780.605200 	 23.977560 
779.602200 	 23.893650 
778.594400 	 23.810910 
777.601100 	 23.731620 
776.616800 	 23.654190 
775.627300 	 23.577600 
774.645900 	 23.502000 
773.658800 	 23.426770 
772.682500 	 23.350640 
771.666400 	 23.273080 
770.645300 	 23.198100 
769.640600 	 23.125320 
768.625600 	 23.053240 
767.655300 	 22.984230 
766.690100 	 22.914030 
765.709700 	 22.841240 
764.713600 	 22.768940 
763.704300 	 22.697170 
762.673200 	 22.624590 
761.656700 	 22.554040 
760.638200 	 22.484010 
759.627100 	 22.414970 
758.628200 	 22.347700 
757.606300 	 22.282010 
756.636000 	 22.219900 
755.664900 	 22.155420 
754.668900 	 22.093930 
753.707000 	 22.030820 
752.685700 	 21.964270 
751.650600 	 21.899140 
750.623800 	 21.833140 
749.607100 	 21.769190 
748.597000 	 21.706680 
747.597800 	 21.646120 
746.613600 	 21.583300 
745.612900 	 21.519550 
744.621900 	 21.454480 
743.620400 	 21.391610 
742.624900 	 21.327800 
741.618800 	 21.266170 
740.623600 	 21.206900 
739.639200 	 21.144410 
738.625300 	 21.085800 
737.618300 	 21.026710 
736.617400 	 20.967410 
735.620700 	 20.906210 
734.616100 	 20.846400 
733.611600 	 20.786930 
732.595000 	 20.727700 
731.577000 	 20.669020 
730.590900 	 20.609400 
729.601400 	 20.548760 
728.627800 	 20.489470 
727.636400 	 20.431310 
726.633700 	 20.370690 
725.616100 	 20.309900 
724.584800 	 20.248900 
723.573800 	 20.188510 
722.604100 	 20.131540 
721.625900 	 20.076710 
720.641500 	 20.018790 
719.656600 	 19.961990 
718.660600 	 19.903740 
717.691700 	 19.841990 
716.709900 	 19.782260 
715.719800 	 19.722750 
714.701300 	 19.663900 
713.683800 	 19.605610 
712.678100 	 19.546900 
711.669200 	 19.487330 
710.673100 	 19.424920 
709.652600 	 19.363120 
708.679700 	 19.303580 
707.686600 	 19.240300 
706.670900 	 19.177170 
705.680800 	 19.116230 
704.646600 	 19.052100 
703.625400 	 18.992560 
702.651400 	 18.936490 
701.658800 	 18.877860 
700.676600 	 18.819640 
699.664400 	 18.759110 
698.649100 	 18.697450 
697.635900 	 18.633880 
696.611000 	 18.570830 
695.631500 	 18.510070 
694.606800 	 18.446820 
693.595500 	 18.385380 
692.609300 	 18.325880 
691.621100 	 18.262230 
690.655300 	 18.199840 
689.691100 	 18.137500 
688.679200 	 18.068440 
687.678200 	 18.003470 
686.656600 	 17.936250 
685.641900 	 17.868260 
684.628600 	 17.805150 
683.602900 	 17.739570 
682.608500 	 17.676580 
681.599600 	 17.613940 
680.620700 	 17.548760 
679.647100 	 17.484480 
678.679400 	 17.417550 
677.693500 	 17.349940 
676.699800 	 17.283790 
675.698500 	 17.213720 
674.654600 	 17.143670 
673.658000 	 17.073870 
672.645400 	 17.003050 
671.641900 	 16.935000 
670.656300 	 16.868010 
669.651100 	 16.799010 
668.677100 	 16.730200 
667.656600 	 16.658000 
666.672600 	 16.583940 
665.657300 	 16.510480 
664.646400 	 16.436780 
663.675500 	 16.365970 
662.676900 	 16.293830 
661.703700 	 16.221800 
660.705600 	 16.149680 
659.683100 	 16.073450 
658.671000 	 15.998290 
657.653100 	 15.921480 
656.629500 	 15.840890 
655.641200 	 15.761660 
654.635500 	 15.681660 
653.635200 	 15.601840 
652.643800 	 15.526270 
651.647200 	 15.452340 
650.651700 	 15.376650 
649.665000 	 15.298900 
648.657000 	 15.215840 
647.665800 	 15.131980 
646.641400 	 15.046640 
645.635100 	 14.962140 
644.640300 	 14.882730 
643.606400 	 14.798170 
642.621500 	 14.717170 
641.631200 	 14.638850 
640.660900 	 14.555720 
639.684400 	 14.475550 
638.715200 	 14.393530 
637.723800 	 14.305350 
636.699800 	 14.215200 
635.702200 	 14.123430 
634.679000 	 14.030970 
633.658300 	 13.939420 
632.676600 	 13.852010 
631.675700 	 13.768060 
630.684100 	 13.681580 
629.683200 	 13.594770 
628.676800 	 13.507940 
627.685400 	 13.413630 
626.690300 	 13.319590 
625.690700 	 13.227550 
624.689900 	 13.130470 
623.697300 	 13.037190 
622.693200 	 12.946410 
621.709800 	 12.854040 
620.727400 	 12.763230 
619.720700 	 12.670320 
618.734100 	 12.575040 
617.733200 	 12.475990 
616.727900 	 12.374130 
615.742300 	 12.274830 
614.744300 	 12.174340 
613.754300 	 12.077050 
612.777500 	 11.986650 
611.785000 	 11.892850 
610.798800 	 11.797390 
609.820200 	 11.701250 
608.775300 	 11.598460 
607.766500 	 11.494250 
606.740200 	 11.390490 
605.700900 	 11.284720 
604.709800 	 11.181360 
603.682300 	 11.078290 
602.678200 	 10.978640 
601.682300 	 10.879640 
600.693300 	 10.778720 
599.725300 	 10.679390 
598.734000 	 10.574910 
597.719000 	 10.467700 
596.717000 	 10.360120 
595.678100 	 10.251450 
594.678300 	 10.145360 
593.679000 	 10.042900 
592.666000 	 9.937042 
591.680400 	 9.833636 
590.665300 	 9.729885 
589.678200 	 9.624985 
588.685500 	 9.523494 
587.697900 	 9.420594 
586.719100 	 9.319500 
585.718900 	 9.213814 
584.705300 	 9.108194 
583.678200 	 9.002695 
582.651700 	 8.893478 
581.646500 	 8.789516 
580.653700 	 8.686256 
579.661900 	 8.580860 
578.672800 	 8.477601 
577.684400 	 8.375523 
576.676000 	 8.273510 
575.698100 	 8.174349 
574.681000 	 8.076065 
573.682300 	 7.974572 
572.694100 	 7.872489 
571.670900 	 7.764847 
570.663100 	 7.659266 
569.655900 	 7.555178 
568.645900 	 7.452830 
567.674600 	 7.359584 
566.702500 	 7.261419 
565.701000 	 7.165141 
564.723700 	 7.066385 
563.700600 	 6.959952 
562.703600 	 6.858667 
561.726000 	 6.760737 
560.708900 	 6.660930 
559.718600 	 6.567520 
558.714600 	 6.470462 
557.682000 	 6.371810 
556.691800 	 6.279862 
555.691000 	 6.186475 
554.706700 	 6.096207 
553.722200 	 6.003778 
552.696000 	 5.908219 
551.700600 	 5.812565 
550.677500 	 5.718102 
549.680100 	 5.622863 
548.719600 	 5.535085 
547.711700 	 5.445817 
546.720700 	 5.355690 
545.713100 	 5.268227 
544.716100 	 5.177083 
543.722500 	 5.092900 
542.717500 	 5.007824 
541.689100 	 4.921698 
540.669000 	 4.836849 
539.654100 	 4.750723 
538.643600 	 4.664683 
537.673300 	 4.585941 
536.656200 	 4.504786 
535.672200 	 4.427691 
534.696800 	 4.352838 
533.707000 	 4.270699 
532.713400 	 4.189847 
531.701600 	 4.107774 
530.683400 	 4.029641 
529.676400 	 3.955385 
528.688700 	 3.880266 
527.664100 	 3.804764 
526.683900 	 3.733218 
525.687000 	 3.661771 
524.699600 	 3.595097 
523.746400 	 3.529319 
522.734600 	 3.457290 
521.713600 	 3.388249 
520.699300 	 3.321845 
519.703100 	 3.258244 
518.699200 	 3.196765 
517.732800 	 3.135802 
516.762200 	 3.075038 
515.754800 	 3.010735 
514.745200 	 2.946713 
513.729400 	 2.883807 
512.714300 	 2.822634 
511.725200 	 2.765969 
510.772700 	 2.713150 
509.784400 	 2.659405 
508.782100 	 2.602341 
507.778500 	 2.546092 
506.757000 	 2.487861 
505.750500 	 2.432085 
504.725300 	 2.375762 
503.713800 	 2.323089 
502.704400 	 2.271188 
501.698700 	 2.221345 
500.696800 	 2.176553 
499.697500 	 2.128134 
498.698800 	 2.082571 
497.706700 	 2.037038 
496.711500 	 1.989434 
495.712100 	 1.944421 
494.730100 	 1.900336 
493.715900 	 1.856587 
492.729800 	 1.816507 
491.731100 	 1.776006 
490.723600 	 1.735141 
489.735000 	 1.694463 
488.718000 	 1.651277 
487.721600 	 1.612042 
486.713500 	 1.573388 
485.726400 	 1.536135 
484.759200 	 1.502282 
483.756000 	 1.464622 
482.757000 	 1.429189 
481.739700 	 1.394191 
480.718500 	 1.357781 
479.696900 	 1.324604 
478.667400 	 1.292442 
477.642300 	 1.262374 
476.658700 	 1.236776 
475.672600 	 1.210360 
474.711600 	 1.181656 
473.766600 	 1.151873 
472.767200 	 1.118798 
471.784400 	 1.085040 
470.761000 	 1.051045 
469.730000 	 1.018528 
468.729200 	 0.989962 
467.709200 	 0.963216 
466.715700 	 0.940328 
465.739400 	 0.919001 
464.736600 	 0.894302 
463.765700 	 0.870071 
462.775100 	 0.844414 
461.763800 	 0.818130 
460.782300 	 0.793781 
459.770700 	 0.770671 
458.782700 	 0.749991 
457.786700 	 0.729488 
456.766300 	 0.708457 
455.757800 	 0.687048 
454.755500 	 0.665091 
453.758200 	 0.644162 
452.771900 	 0.624835 
451.778700 	 0.603885 
450.769700 	 0.581887 
449.752800 	 0.558059 
448.750600 	 0.531890 
447.736900 	 0.509384 
446.749100 	 0.488222 
445.760100 	 0.472836 
444.742900 	 0.460044 
443.730700 	 0.443595 
442.698900 	 0.427909 
441.667100 	 0.404809 
440.652700 	 0.380824 
439.673800 	 0.358226 
438.694900 	 0.334317 
437.698200 	 0.309684 
436.713700 	 0.284562 
435.699000 	 0.259644 
434.697000 	 0.245774 
433.721900 	 0.242607 
432.726000 	 0.240461 
431.735800 	 0.237794 
430.732400 	 0.221926 
429.730400 	 0.197879 
428.712300 	 0.172136 
427.710700 	 0.146421 
426.704400 	 0.121688 
425.679400 	 0.096328 
424.681000 	 0.073199 
423.674100 	 0.052296 
422.685800 	 0.034565 
421.711200 	 0.020870 
420.742100 	 0.008508 
419.761500 	 -0.005624 
418.762500 	 -0.019855 
417.752700 	 -0.035408 
416.742400 	 -0.052595 
415.721500 	 -0.066838 
414.713100 	 -0.079743 
413.729300 	 -0.095435 
412.717800 	 -0.105792 
411.732100 	 -0.119501 
410.765000 	 -0.132615 
409.760100 	 -0.141283 
408.769700 	 -0.153372 
407.799200 	 -0.161943 
406.800700 	 -0.172913 
405.802700 	 -0.183191 
404.819700 	 -0.191221 
403.792700 	 -0.200188 
402.777800 	 -0.206610 
401.780500 	 -0.212150 
400.758900 	 -0.217186 
399.765000 	 -0.220832 
398.744300 	 -0.223302 
397.733200 	 -0.227164 
396.736300 	 -0.230573 
395.733800 	 -0.231880 
394.758000 	 -0.232347 
393.754100 	 -0.231693 
392.752700 	 -0.233903 
391.746900 	 -0.235154 
390.737600 	 -0.237670 
389.760800 	 -0.239003 
388.773800 	 -0.239271 
387.757300 	 -0.245137 
386.736500 	 -0.253302 
385.718400 	 -0.261585 
384.714400 	 -0.266916 
383.724900 	 -0.267244 
382.749100 	 -0.266904 
381.758100 	 -0.269516 
380.765500 	 -0.275972 
379.750900 	 -0.285367 
378.741500 	 -0.292911 
377.721600 	 -0.300090 
376.709700 	 -0.306641 
375.740700 	 -0.311982 
374.725100 	 -0.316526 
373.741600 	 -0.317020 
372.741000 	 -0.315488 
371.728500 	 -0.314023 
370.743600 	 -0.312618 
369.755700 	 -0.313330 
368.748900 	 -0.315926 
367.754000 	 -0.318315 
366.758700 	 -0.320371 
365.727300 	 -0.321836 
364.724500 	 -0.322900 
363.727400 	 -0.323321 
362.736300 	 -0.324502 
361.750000 	 -0.326408 
360.735800 	 -0.328188 
359.719300 	 -0.328954 
358.719300 	 -0.328801 
357.740400 	 -0.327364 
356.775300 	 -0.325147 
355.785700 	 -0.324343 
354.766500 	 -0.323671 
353.748700 	 -0.324586 
352.725200 	 -0.327733 
351.711000 	 -0.329304 
350.706300 	 -0.331237 
349.712100 	 -0.330909 
348.729600 	 -0.329956 
347.734300 	 -0.329989 
346.734300 	 -0.329660 
345.712800 	 -0.331007 
344.705800 	 -0.330145 
343.734700 	 -0.329251 
342.747700 	 -0.329282 
341.779400 	 -0.328533 
340.803100 	 -0.329932 
339.770900 	 -0.333528 
338.762100 	 -0.334810 
337.772600 	 -0.336686 
336.736300 	 -0.338294 
335.742200 	 -0.339053 
334.753900 	 -0.342552 
333.743800 	 -0.346489 
332.756300 	 -0.349957 
331.768200 	 -0.352236 
330.768400 	 -0.353587 
329.787200 	 -0.354991 
328.799000 	 -0.354933 
327.803300 	 -0.354381 
326.821200 	 -0.354638 
325.793500 	 -0.353973 
324.800400 	 -0.355223 
323.791800 	 -0.357670 
322.792700 	 -0.359565 
321.792600 	 -0.362717 
320.807100 	 -0.364984 
319.818500 	 -0.367423 
318.827000 	 -0.369205 
317.823100 	 -0.371057 
316.821000 	 -0.370087 
315.820500 	 -0.369513 
314.803400 	 -0.368626 
313.808800 	 -0.366895 
312.787300 	 -0.367981 
311.800300 	 -0.365307 
310.811400 	 -0.363517 
309.829300 	 -0.362407 
308.850600 	 -0.361341 
307.860400 	 -0.364402 
306.874600 	 -0.367550 
305.886100 	 -0.369770 
304.886300 	 -0.373474 
303.860200 	 -0.376397 
302.817100 	 -0.378895 
301.804600 	 -0.381498 
300.783900 	 -0.381761 
299.791300 	 -0.380936 
298.827500 	 -0.380617 
297.809300 	 -0.380593 
296.819400 	 -0.381896 
295.809000 	 -0.384213 
294.772200 	 -0.386916 
293.782400 	 -0.388847 
292.786900 	 -0.388941 
291.792400 	 -0.388487 
290.814200 	 -0.388125 
289.821200 	 -0.390098 
288.799700 	 -0.394473 
287.801100 	 -0.399916 
286.799200 	 -0.404831 
285.781400 	 -0.408352 
284.780900 	 -0.411031 
283.773300 	 -0.411853 
282.779300 	 -0.413307 
281.779900 	 -0.413588 
280.803300 	 -0.413143 
279.833600 	 -0.413208 
278.837700 	 -0.412545 
277.847500 	 -0.414345 
276.861600 	 -0.415537 
275.840800 	 -0.418595 
274.829700 	 -0.420603 
273.849800 	 -0.420872 
272.826100 	 -0.422303 
271.834700 	 -0.423333 
270.843800 	 -0.428403 
269.797500 	 -0.433597 
268.811600 	 -0.439901 
267.809700 	 -0.445841 
266.802300 	 -0.448613 
265.806100 	 -0.452753 
264.768700 	 -0.455330 
263.751000 	 -0.457477 
262.749000 	 -0.459898 
261.764800 	 -0.461024 
260.805100 	 -0.462504 
259.814800 	 -0.463014 
258.800300 	 -0.466264 
257.830700 	 -0.469149 
256.823900 	 -0.473320 
255.819400 	 -0.476397 
254.849200 	 -0.476898 
253.839500 	 -0.479139 
252.845800 	 -0.481230 
251.845900 	 -0.486076 
250.833700 	 -0.494003 
249.811800 	 -0.501524 
248.802200 	 -0.509416 
247.811300 	 -0.515525 
246.800400 	 -0.519984 
245.795500 	 -0.524573 
244.798900 	 -0.527779 
243.789100 	 -0.533190 
242.799200 	 -0.537309 
241.804100 	 -0.540554 
240.804400 	 -0.546856 
239.826100 	 -0.551562 
238.817300 	 -0.556708 
237.832400 	 -0.562978 
236.814000 	 -0.568760 
235.803000 	 -0.573650 
234.818700 	 -0.580344 
233.804900 	 -0.587714 
232.823900 	 -0.593086 
231.820300 	 -0.600507 
230.807100 	 -0.609661 
229.825700 	 -0.615086 
228.838200 	 -0.623019 
227.836000 	 -0.631937 
226.849900 	 -0.637328 
225.852300 	 -0.647813 
224.843300 	 -0.653940 
223.840500 	 -0.662982 
222.837800 	 -0.673396 
221.810600 	 -0.681790 
220.799800 	 -0.693863 
219.792200 	 -0.700766 
218.806900 	 -0.710277 
217.832600 	 -0.719720 
216.843400 	 -0.730777 
215.876800 	 -0.744037 
214.873200 	 -0.755627 
213.872400 	 -0.768371 
212.872800 	 -0.778765 
211.856900 	 -0.792041 
210.851000 	 -0.804989 
209.865300 	 -0.815928 
208.853200 	 -0.828912 
207.864900 	 -0.839298 
206.878100 	 -0.850175 
205.866500 	 -0.864197 
204.881200 	 -0.878332 
203.884400 	 -0.893894 
202.886900 	 -0.909599 
201.902600 	 -0.925942 
