WE1 Volts(mV)    WE1 Idir (uA) 
-800.041100 	 -6.698382 
-799.792400 	 -6.680573 
-799.297600 	 -6.659282 
-798.551300 	 -6.627720 
-797.540600 	 -6.593317 
-796.565900 	 -6.565638 
-795.577000 	 -6.531885 
-794.580500 	 -6.504314 
-793.600900 	 -6.470041 
-792.597800 	 -6.442564 
-791.584200 	 -6.416780 
-790.582600 	 -6.391704 
-789.576400 	 -6.370430 
-788.565200 	 -6.351677 
-787.577000 	 -6.339057 
-786.592700 	 -6.324650 
-785.602000 	 -6.307649 
-784.606300 	 -6.286500 
-783.609800 	 -6.265088 
-782.620500 	 -6.242621 
-781.618700 	 -6.221711 
-780.631700 	 -6.200968 
-779.627300 	 -6.178516 
-778.612700 	 -6.155336 
-777.614300 	 -6.133914 
-776.585900 	 -6.109738 
-775.579100 	 -6.082472 
-774.583000 	 -6.060397 
-773.581000 	 -6.038832 
-772.584500 	 -6.023726 
-771.579500 	 -6.010822 
-770.562100 	 -5.996803 
-769.553700 	 -5.981569 
-768.552400 	 -5.966602 
-767.563200 	 -5.954094 
-766.585800 	 -5.940378 
-765.585400 	 -5.928131 
-764.596100 	 -5.912700 
-763.607500 	 -5.895690 
-762.605600 	 -5.878554 
-761.630700 	 -5.864286 
-760.641400 	 -5.850190 
-759.634000 	 -5.832288 
-758.616000 	 -5.814957 
-757.608200 	 -5.795008 
-756.627600 	 -5.775740 
-755.636200 	 -5.759471 
-754.676900 	 -5.742715 
-753.705000 	 -5.724354 
-752.676300 	 -5.705186 
-751.674900 	 -5.686079 
-750.648400 	 -5.668387 
-749.598400 	 -5.651837 
-748.593300 	 -5.639222 
-747.593400 	 -5.627389 
-746.603000 	 -5.613991 
-745.630700 	 -5.601005 
-744.650100 	 -5.585396 
-743.657000 	 -5.569136 
-742.669300 	 -5.552957 
-741.669700 	 -5.535903 
-740.664100 	 -5.519638 
-739.663500 	 -5.503644 
-738.650800 	 -5.487889 
-737.663600 	 -5.471653 
-736.673500 	 -5.455730 
-735.674900 	 -5.442211 
-734.671500 	 -5.429548 
-733.644300 	 -5.418818 
-732.640900 	 -5.406500 
-731.628700 	 -5.393031 
-730.605000 	 -5.378068 
-729.621900 	 -5.363735 
-728.610900 	 -5.349926 
-727.602200 	 -5.334963 
-726.633400 	 -5.319109 
-725.607200 	 -5.301907 
-724.619900 	 -5.285977 
-723.633300 	 -5.272238 
-722.617400 	 -5.261340 
-721.636400 	 -5.252020 
-720.627000 	 -5.241303 
-719.617900 	 -5.229745 
-718.621600 	 -5.216633 
-717.630700 	 -5.203318 
-716.654200 	 -5.191331 
-715.681400 	 -5.177806 
-714.670500 	 -5.163672 
-713.657900 	 -5.147101 
-712.648200 	 -5.133136 
-711.634600 	 -5.119096 
-710.668500 	 -5.105039 
-709.676200 	 -5.092856 
-708.675200 	 -5.078861 
-707.674000 	 -5.067076 
-706.657500 	 -5.058448 
-705.669300 	 -5.047765 
-704.667800 	 -5.037592 
-703.659400 	 -5.026471 
-702.662000 	 -5.012341 
-701.642600 	 -4.999764 
-700.644600 	 -4.984665 
-699.680200 	 -4.974584 
-698.690600 	 -4.963315 
-697.705300 	 -4.956442 
-696.721500 	 -4.947005 
-695.696300 	 -4.932520 
-694.699300 	 -4.922110 
-693.690600 	 -4.908352 
-692.672500 	 -4.897007 
-691.682400 	 -4.885210 
-690.676900 	 -4.872602 
-689.670400 	 -4.859154 
-688.672100 	 -4.847697 
-687.680200 	 -4.836245 
-686.697800 	 -4.824591 
-685.722400 	 -4.814348 
-684.732800 	 -4.805168 
-683.733900 	 -4.796244 
-682.693200 	 -4.785632 
-681.690700 	 -4.774790 
-680.663700 	 -4.762260 
-679.639000 	 -4.750596 
-678.664400 	 -4.740070 
-677.646200 	 -4.730319 
-676.679500 	 -4.718460 
-675.703400 	 -4.705426 
-674.698600 	 -4.693589 
-673.703000 	 -4.682404 
-672.695200 	 -4.673473 
-671.675700 	 -4.667143 
-670.657300 	 -4.660056 
-669.646900 	 -4.650141 
-668.619300 	 -4.641511 
-667.629400 	 -4.631084 
-666.649400 	 -4.621655 
-665.659700 	 -4.612945 
-664.680500 	 -4.602056 
-663.672300 	 -4.589459 
-662.675800 	 -4.578483 
-661.680800 	 -4.570521 
-660.669800 	 -4.564115 
-659.684800 	 -4.558960 
-658.683700 	 -4.551419 
-657.682300 	 -4.542921 
-656.685500 	 -4.532302 
-655.666900 	 -4.522606 
-654.691500 	 -4.512897 
-653.705700 	 -4.501198 
-652.716800 	 -4.490774 
-651.728100 	 -4.480512 
-650.666400 	 -4.470091 
-649.644500 	 -4.461482 
-648.650500 	 -4.454705 
-647.641300 	 -4.448810 
-646.692300 	 -4.443416 
-645.705400 	 -4.437992 
-644.703700 	 -4.430022 
-643.710900 	 -4.420658 
-642.701300 	 -4.410423 
-641.709800 	 -4.399137 
-640.698900 	 -4.388380 
-639.700100 	 -4.378066 
-638.691700 	 -4.368712 
-637.675400 	 -4.357286 
-636.690700 	 -4.348255 
-635.700200 	 -4.340343 
-634.708400 	 -4.333349 
-633.730300 	 -4.329803 
-632.717500 	 -4.323579 
-631.713300 	 -4.316019 
-630.694100 	 -4.308068 
-629.690400 	 -4.298818 
-628.677100 	 -4.290063 
-627.657200 	 -4.282362 
-626.667700 	 -4.272563 
-625.651800 	 -4.261319 
-624.670700 	 -4.251502 
-623.682100 	 -4.243326 
-622.653400 	 -4.237020 
-621.642200 	 -4.232985 
-620.634200 	 -4.228305 
-619.620700 	 -4.220657 
-618.629300 	 -4.212304 
-617.632400 	 -4.204909 
-616.645300 	 -4.196341 
-615.671000 	 -4.188330 
-614.697500 	 -4.180628 
-613.708300 	 -4.169783 
-612.695300 	 -4.161140 
-611.660900 	 -4.153061 
-610.666600 	 -4.146513 
-609.671400 	 -4.142514 
-608.689200 	 -4.136576 
-607.713600 	 -4.131598 
-606.707300 	 -4.125019 
-605.701500 	 -4.116331 
-604.699000 	 -4.109609 
-603.708000 	 -4.100457 
-602.715000 	 -4.091317 
-601.731100 	 -4.083741 
-600.714800 	 -4.075684 
-599.704800 	 -4.069325 
-598.687400 	 -4.064574 
-597.711000 	 -4.059860 
-596.740500 	 -4.055239 
-595.750100 	 -4.050032 
-594.801800 	 -4.043324 
-593.769200 	 -4.035700 
-592.733300 	 -4.026180 
-591.732400 	 -4.018528 
-590.701900 	 -4.010476 
-589.702600 	 -4.002933 
-588.742800 	 -3.998513 
-587.752300 	 -3.988455 
-586.755400 	 -3.979541 
-585.785400 	 -3.973062 
-584.784700 	 -3.966983 
-583.797500 	 -3.965032 
-582.815700 	 -3.962191 
-581.808800 	 -3.956680 
-580.798000 	 -3.949005 
-579.774500 	 -3.939967 
-578.761700 	 -3.932469 
-577.765000 	 -3.926438 
-576.777200 	 -3.918799 
-575.795000 	 -3.911035 
-574.775600 	 -3.902694 
-573.746800 	 -3.895073 
-572.714000 	 -3.889957 
-571.697400 	 -3.886775 
-570.700100 	 -3.883236 
-569.728700 	 -3.877830 
-568.733500 	 -3.870796 
-567.729600 	 -3.864039 
-566.742600 	 -3.857529 
-565.732800 	 -3.851110 
-564.755800 	 -3.845589 
-563.768600 	 -3.836937 
-562.754400 	 -3.830755 
-561.762200 	 -3.825642 
-560.751500 	 -3.820792 
-559.753200 	 -3.819427 
-558.786900 	 -3.813096 
-557.769700 	 -3.808198 
-556.780200 	 -3.802185 
-555.804700 	 -3.793393 
-554.778100 	 -3.788325 
-553.816000 	 -3.781673 
-552.812800 	 -3.772834 
-551.810500 	 -3.767028 
-550.824000 	 -3.759148 
-549.791700 	 -3.752445 
-548.792600 	 -3.748615 
-547.772000 	 -3.742669 
-546.803600 	 -3.741018 
-545.840800 	 -3.736147 
-544.831300 	 -3.730113 
-543.841900 	 -3.726311 
-542.817600 	 -3.720266 
-541.775800 	 -3.713889 
-540.810300 	 -3.709400 
-539.828900 	 -3.703238 
-538.809900 	 -3.694302 
-537.805300 	 -3.687776 
-536.758100 	 -3.682599 
-535.720200 	 -3.678288 
-534.730800 	 -3.676319 
-533.758900 	 -3.673738 
-532.793700 	 -3.670787 
-531.816900 	 -3.665832 
-530.834900 	 -3.659818 
-529.828800 	 -3.653532 
-528.810900 	 -3.645427 
-527.799000 	 -3.638119 
-526.770900 	 -3.631164 
-525.752700 	 -3.625093 
-524.784500 	 -3.620389 
-523.788700 	 -3.616190 
-522.802600 	 -3.612380 
-521.809600 	 -3.608385 
-520.790000 	 -3.604250 
-519.787400 	 -3.599773 
-518.767000 	 -3.595191 
-517.762800 	 -3.587432 
-516.743100 	 -3.579292 
-515.738300 	 -3.572122 
-514.729600 	 -3.565580 
-513.735800 	 -3.561712 
-512.743400 	 -3.556331 
-511.741900 	 -3.551125 
-510.756500 	 -3.547667 
-509.755900 	 -3.545619 
-508.752100 	 -3.545507 
-507.757000 	 -3.542574 
-506.757100 	 -3.537266 
-505.764900 	 -3.530975 
-504.755800 	 -3.523382 
-503.755000 	 -3.518687 
-502.763900 	 -3.513849 
-501.738600 	 -3.508316 
-500.754800 	 -3.502627 
-499.749000 	 -3.494981 
-498.750200 	 -3.489469 
-497.780600 	 -3.486407 
-496.778800 	 -3.485244 
-495.790800 	 -3.485602 
-494.804200 	 -3.483305 
-493.792600 	 -3.478213 
-492.802200 	 -3.473418 
-491.795800 	 -3.466933 
-490.776600 	 -3.461191 
-489.787700 	 -3.456131 
-488.807100 	 -3.448515 
-487.797200 	 -3.442388 
-486.791700 	 -3.437653 
-485.787800 	 -3.433769 
-484.759600 	 -3.431267 
-483.757400 	 -3.428255 
-482.778600 	 -3.425058 
-481.791700 	 -3.420953 
-480.807700 	 -3.416440 
-479.844700 	 -3.412239 
-478.867500 	 -3.406392 
-477.838700 	 -3.399513 
-476.833600 	 -3.394509 
-475.797600 	 -3.388782 
-474.764800 	 -3.384487 
-473.786600 	 -3.381980 
-472.801400 	 -3.378321 
-471.820900 	 -3.375894 
-470.812600 	 -3.373318 
-469.811000 	 -3.369836 
-468.788500 	 -3.365428 
-467.763800 	 -3.360264 
-466.782700 	 -3.354999 
-465.774900 	 -3.350015 
-464.758200 	 -3.345281 
-463.773400 	 -3.342476 
-462.764700 	 -3.336183 
-461.751600 	 -3.331148 
-460.782100 	 -3.327015 
-459.797900 	 -3.323171 
-458.797600 	 -3.322512 
-457.823900 	 -3.321221 
-456.833900 	 -3.318941 
-455.821800 	 -3.313352 
-454.826100 	 -3.308138 
-453.800300 	 -3.302138 
-452.795500 	 -3.297096 
-451.799900 	 -3.292740 
-450.807700 	 -3.286608 
-449.852400 	 -3.280807 
-448.838500 	 -3.275645 
-447.840500 	 -3.273429 
-446.830300 	 -3.272306 
-445.800000 	 -3.270735 
-444.784400 	 -3.268315 
-443.770100 	 -3.264126 
-442.781900 	 -3.260778 
-441.795900 	 -3.258101 
-440.836300 	 -3.254579 
-439.857400 	 -3.250703 
-438.853900 	 -3.244498 
-437.831100 	 -3.239683 
-436.800200 	 -3.237202 
-435.803700 	 -3.234737 
-434.814300 	 -3.234569 
-433.821900 	 -3.232767 
-432.836300 	 -3.229705 
-431.855300 	 -3.225981 
-430.844100 	 -3.222075 
-429.849500 	 -3.217348 
-428.832200 	 -3.212569 
-427.798400 	 -3.208166 
-426.778500 	 -3.202967 
-425.785200 	 -3.199609 
-424.797400 	 -3.195909 
-423.810700 	 -3.192809 
-422.826400 	 -3.189104 
-421.813100 	 -3.185569 
-420.828900 	 -3.182558 
-419.835000 	 -3.179295 
-418.814500 	 -3.176508 
-417.799500 	 -3.171368 
-416.769600 	 -3.165212 
-415.733100 	 -3.159513 
-414.738400 	 -3.154398 
-413.714700 	 -3.149997 
-412.734400 	 -3.145848 
-411.745200 	 -3.140755 
-410.746700 	 -3.137238 
-409.791900 	 -3.135415 
-408.789600 	 -3.134770 
-407.780300 	 -3.134457 
-406.789200 	 -3.131118 
-405.804400 	 -3.129347 
-404.818500 	 -3.126251 
-403.839000 	 -3.120371 
-402.853100 	 -3.117419 
-401.839300 	 -3.111111 
-400.797400 	 -3.105262 
-399.818800 	 -3.102342 
-398.823400 	 -3.098785 
-397.822500 	 -3.095653 
-396.869800 	 -3.096369 
-395.861900 	 -3.096931 
-394.856600 	 -3.093803 
-393.876200 	 -3.092292 
-392.849600 	 -3.084727 
-391.845200 	 -3.078245 
-390.854600 	 -3.075075 
-389.844300 	 -3.069954 
-388.871700 	 -3.067691 
-387.874500 	 -3.062376 
-386.865000 	 -3.060464 
-385.857800 	 -3.056202 
-384.837900 	 -3.052024 
-383.824600 	 -3.050877 
-382.808100 	 -3.046125 
-381.815300 	 -3.043799 
-380.831100 	 -3.040703 
-379.865400 	 -3.036595 
-378.885100 	 -3.030691 
-377.907200 	 -3.025011 
-376.899100 	 -3.019080 
-375.863900 	 -3.013662 
-374.844300 	 -3.010372 
-373.813100 	 -3.007208 
-372.795500 	 -3.004737 
-371.849800 	 -3.002885 
-370.875600 	 -3.001175 
-369.888500 	 -2.999116 
-368.899300 	 -2.995186 
-367.846000 	 -2.989709 
-366.839800 	 -2.983804 
-365.834200 	 -2.978636 
-364.832000 	 -2.975079 
-363.851800 	 -2.972313 
-362.826700 	 -2.966594 
-361.820400 	 -2.961323 
-360.818100 	 -2.956168 
-359.822500 	 -2.952110 
-358.852100 	 -2.950972 
-357.852400 	 -2.950307 
-356.875800 	 -2.948002 
-355.882300 	 -2.944152 
-354.880600 	 -2.940193 
-353.881400 	 -2.935115 
-352.885100 	 -2.932003 
-351.868700 	 -2.928714 
-350.868600 	 -2.924045 
-349.854900 	 -2.917604 
-348.840600 	 -2.911244 
-347.810200 	 -2.906963 
-346.807800 	 -2.904369 
-345.845100 	 -2.903950 
-344.835000 	 -2.902610 
-343.864300 	 -2.899193 
-342.845800 	 -2.896045 
-341.843800 	 -2.892175 
-340.866300 	 -2.887679 
-339.874800 	 -2.883447 
-338.895000 	 -2.876863 
-337.882600 	 -2.870891 
-336.866600 	 -2.866654 
-335.856900 	 -2.863451 
-334.858600 	 -2.862289 
-333.863500 	 -2.860489 
-332.871400 	 -2.859647 
-331.895400 	 -2.856703 
-330.899500 	 -2.852902 
-329.908300 	 -2.850178 
-328.925700 	 -2.844629 
-327.917200 	 -2.840672 
-326.919500 	 -2.836229 
-325.900700 	 -2.831442 
-324.876400 	 -2.826785 
-323.848900 	 -2.821894 
-322.830600 	 -2.816459 
-321.836200 	 -2.812289 
-320.839000 	 -2.809994 
-319.873000 	 -2.807899 
-318.918500 	 -2.806795 
-317.914100 	 -2.802533 
-316.921900 	 -2.797643 
-315.903700 	 -2.792573 
-314.868600 	 -2.787394 
-313.869800 	 -2.783916 
-312.853000 	 -2.778896 
-311.846100 	 -2.772440 
-310.841200 	 -2.767705 
-309.836900 	 -2.764102 
-308.850900 	 -2.762782 
-307.857300 	 -2.762449 
-306.832900 	 -2.760583 
-305.849000 	 -2.756871 
-304.833700 	 -2.751667 
-303.835700 	 -2.747192 
-302.890300 	 -2.744358 
-301.881600 	 -2.740453 
-300.910000 	 -2.737420 
-299.913800 	 -2.731685 
-298.885100 	 -2.724509 
-297.882000 	 -2.722882 
-296.884000 	 -2.721277 
-295.864100 	 -2.722191 
-294.861800 	 -2.722839 
-293.861500 	 -2.719220 
-292.849100 	 -2.715190 
-291.869100 	 -2.710980 
-290.901700 	 -2.706558 
-289.927200 	 -2.701827 
-288.949700 	 -2.695699 
-287.953300 	 -2.688755 
-286.942400 	 -2.682979 
-285.926800 	 -2.676880 
-284.901600 	 -2.674755 
-283.899800 	 -2.673060 
-282.904500 	 -2.671192 
-281.923800 	 -2.670417 
-280.925000 	 -2.666251 
-279.944500 	 -2.661753 
-278.953500 	 -2.655447 
-277.946700 	 -2.648239 
-276.946600 	 -2.641389 
-275.926500 	 -2.634636 
-274.900000 	 -2.629229 
-273.896100 	 -2.624577 
-272.906900 	 -2.619360 
-271.925800 	 -2.616745 
-270.943800 	 -2.615695 
-269.943500 	 -2.612205 
-268.954000 	 -2.610218 
-267.930700 	 -2.604449 
-266.924600 	 -2.597751 
-265.916600 	 -2.592208 
-264.890500 	 -2.587399 
-263.897600 	 -2.583812 
-262.896300 	 -2.578287 
-261.899400 	 -2.572232 
-260.895100 	 -2.565465 
-259.876500 	 -2.559355 
-258.878100 	 -2.554886 
-257.876300 	 -2.552564 
-256.874100 	 -2.548631 
-255.878900 	 -2.544645 
-254.879900 	 -2.538941 
-253.895100 	 -2.534460 
-252.924700 	 -2.529704 
-251.960600 	 -2.523188 
-250.969700 	 -2.516139 
-249.983600 	 -2.506488 
-248.981200 	 -2.496676 
-247.973500 	 -2.490874 
-246.959000 	 -2.483956 
-245.941200 	 -2.478927 
-244.958600 	 -2.477527 
-243.944900 	 -2.470229 
-242.963700 	 -2.463920 
-241.973500 	 -2.457271 
-240.959600 	 -2.445949 
-239.973800 	 -2.440488 
-238.982200 	 -2.434615 
-237.970700 	 -2.426052 
-236.968300 	 -2.418474 
-235.955100 	 -2.408964 
-234.916500 	 -2.400533 
-233.927400 	 -2.394385 
-232.920000 	 -2.387170 
-231.941200 	 -2.378695 
-230.967900 	 -2.370575 
-229.968400 	 -2.359554 
-228.988700 	 -2.350106 
-227.973600 	 -2.337810 
-226.961000 	 -2.327117 
-225.942600 	 -2.316423 
-224.920100 	 -2.304452 
-223.918000 	 -2.295017 
-222.919600 	 -2.281383 
-221.913200 	 -2.267723 
-220.906400 	 -2.257007 
-219.916400 	 -2.245969 
-218.921800 	 -2.234730 
-217.943500 	 -2.222399 
-216.939500 	 -2.207371 
-215.915000 	 -2.189834 
-214.916700 	 -2.173707 
-213.910900 	 -2.158819 
-212.925600 	 -2.143578 
-211.944600 	 -2.126676 
-210.928500 	 -2.108409 
-209.913600 	 -2.089785 
-208.897100 	 -2.071015 
-207.872200 	 -2.055378 
-206.871600 	 -2.040272 
-205.870000 	 -2.021746 
-204.882700 	 -2.003515 
-203.877400 	 -1.982466 
-202.895200 	 -1.961598 
-201.911200 	 -1.942337 
-200.931300 	 -1.920540 
-199.951200 	 -1.896455 
-198.947200 	 -1.868900 
-197.937900 	 -1.840670 
-196.926300 	 -1.813349 
-195.924800 	 -1.787117 
-194.925600 	 -1.762161 
-193.942800 	 -1.736231 
-192.955700 	 -1.708231 
-191.968400 	 -1.679335 
-190.977200 	 -1.647539 
-189.953800 	 -1.611524 
-188.941600 	 -1.575623 
-187.935700 	 -1.535364 
-186.919000 	 -1.493770 
-185.937600 	 -1.454485 
-184.944700 	 -1.412167 
-183.932100 	 -1.371629 
-182.919100 	 -1.332696 
-181.915500 	 -1.289971 
-180.900100 	 -1.247617 
-179.933900 	 -1.201958 
-178.964200 	 -1.151311 
-177.978300 	 -1.095480 
-176.992200 	 -1.035016 
-175.987500 	 -0.975220 
-174.976200 	 -0.915036 
-173.961400 	 -0.854290 
-172.969100 	 -0.796446 
-171.958100 	 -0.734616 
-170.951500 	 -0.668746 
-169.950300 	 -0.604921 
-168.939800 	 -0.534343 
-167.934100 	 -0.458807 
-166.952900 	 -0.383537 
-165.973000 	 -0.302487 
-164.983800 	 -0.219912 
-163.994500 	 -0.138250 
-162.996600 	 -0.056804 
-161.991500 	 0.028422 
-160.987300 	 0.117496 
-159.984400 	 0.208110 
-158.971200 	 0.306539 
-157.936400 	 0.411916 
-156.935000 	 0.511079 
-155.928100 	 0.613610 
-154.927200 	 0.718860 
-153.963600 	 0.815757 
-152.956300 	 0.918921 
-151.972900 	 1.027073 
-150.986800 	 1.135611 
-150.000700 	 1.251629 
-149.018300 	 1.373734 
-148.008800 	 1.496896 
-147.024100 	 1.620822 
-146.007800 	 1.745846 
-145.002200 	 1.873991 
-144.001200 	 1.996658 
-143.001100 	 2.115515 
-142.005100 	 2.241817 
-141.021200 	 2.361142 
-140.047300 	 2.489225 
-139.043200 	 2.630606 
-138.032500 	 2.768947 
-137.010500 	 2.911290 
-136.011700 	 3.052793 
-135.002300 	 3.186003 
-134.008900 	 3.318550 
-133.018500 	 3.448238 
-132.010200 	 3.578598 
-131.007800 	 3.708668 
-130.034600 	 3.834657 
-129.022000 	 3.969200 
-128.008500 	 4.103165 
-127.014800 	 4.238231 
-125.983000 	 4.379803 
-124.996700 	 4.508793 
-123.993300 	 4.633682 
-122.994100 	 4.756846 
-122.005000 	 4.871704 
-121.004200 	 4.991262 
-120.025300 	 5.112613 
-119.029400 	 5.234098 
-118.037400 	 5.358884 
-117.038400 	 5.478349 
-116.022200 	 5.594101 
-115.011400 	 5.705547 
-114.002000 	 5.807528 
-113.005700 	 5.909825 
-112.010300 	 6.005319 
-111.021700 	 6.099779 
-110.015100 	 6.198034 
-109.008400 	 6.289653 
-108.013200 	 6.385458 
-106.970300 	 6.480074 
-105.960400 	 6.564734 
-104.935300 	 6.647365 
-103.938000 	 6.718939 
-102.964000 	 6.776000 
-101.974900 	 6.836077 
-101.007100 	 6.891011 
-100.001700 	 6.947631 
-99.016270 	 7.006828 
-98.034010 	 7.060839 
-97.016490 	 7.116755 
-96.030270 	 7.165361 
-95.025020 	 7.212763 
-94.006490 	 7.259238 
-93.037060 	 7.294734 
-92.043140 	 7.331301 
-91.043240 	 7.363801 
-90.065130 	 7.386854 
-89.060250 	 7.412369 
-88.047600 	 7.437835 
-87.057400 	 7.457444 
-86.040440 	 7.475038 
-85.042720 	 7.493984 
-84.040730 	 7.501937 
-83.044790 	 7.508138 
-82.043540 	 7.515407 
-81.030510 	 7.520512 
-80.020550 	 7.522472 
-79.002300 	 7.526955 
-77.995520 	 7.531064 
-76.990640 	 7.524663 
-76.011260 	 7.520353 
-75.004620 	 7.513659 
-74.003800 	 7.495802 
-73.012100 	 7.481244 
-72.004100 	 7.464173 
-71.024830 	 7.440903 
-70.046330 	 7.420921 
-69.048900 	 7.401592 
-68.036820 	 7.383965 
-67.024170 	 7.365411 
-65.993180 	 7.343389 
-64.990540 	 7.318624 
-63.975190 	 7.285914 
-62.996530 	 7.253500 
-61.999280 	 7.225779 
-60.994780 	 7.193989 
-60.022910 	 7.165079 
-59.007310 	 7.138062 
-58.030810 	 7.102672 
-57.024380 	 7.070032 
-55.994930 	 7.037748 
-54.969290 	 7.001813 
-53.951000 	 6.965450 
-52.948750 	 6.925358 
-51.968350 	 6.885091 
-50.999070 	 6.844659 
-50.027180 	 6.807484 
-49.038270 	 6.776877 
-48.033650 	 6.741049 
-47.032550 	 6.705102 
-46.007660 	 6.668184 
-45.009380 	 6.624575 
-44.005520 	 6.582710 
-42.986300 	 6.542686 
-42.023100 	 6.500477 
-41.003090 	 6.461079 
-40.026580 	 6.423514 
-39.031470 	 6.385636 
-38.013260 	 6.350785 
-37.007030 	 6.314686 
-35.991730 	 6.278252 
-34.982280 	 6.238568 
-33.973630 	 6.195933 
-32.986030 	 6.154502 
-31.991300 	 6.111468 
-31.002480 	 6.071384 
-29.986280 	 6.034572 
-29.002110 	 5.996084 
-27.980650 	 5.959019 
-26.979760 	 5.921412 
-25.995060 	 5.880796 
-24.987550 	 5.843554 
-23.997520 	 5.805723 
-22.998220 	 5.770379 
-22.015880 	 5.736206 
-21.021330 	 5.699743 
-20.032300 	 5.662957 
-19.032870 	 5.624788 
-18.007310 	 5.587788 
-16.992270 	 5.553210 
-15.973100 	 5.518901 
-14.981080 	 5.484383 
-13.999570 	 5.449401 
-13.032710 	 5.411448 
-12.050340 	 5.378772 
-11.042320 	 5.348001 
-10.039310 	 5.315833 
-9.010946 	 5.286226 
-8.003665 	 5.251014 
-6.990672 	 5.214305 
-5.971387 	 5.180314 
-4.942065 	 5.147702 
-3.971057 	 5.112563 
-3.007793 	 5.079961 
-2.057473 	 5.046720 
-1.126205 	 5.014151 
-0.131505 	 4.987106 
0.854973 	 4.960608 
1.875000 	 4.933725 
2.875726 	 4.902946 
3.849574 	 4.872515 
4.855237 	 4.838937 
5.845117 	 4.805721 
6.836399 	 4.777361 
7.862370 	 4.749255 
8.863112 	 4.723356 
9.852760 	 4.697683 
10.851370 	 4.672957 
11.859600 	 4.648857 
12.837290 	 4.623312 
13.832900 	 4.600594 
14.849970 	 4.576306 
15.831300 	 4.549365 
16.846620 	 4.523860 
17.853160 	 4.497807 
18.843700 	 4.470333 
19.836350 	 4.446431 
20.847740 	 4.426088 
21.841200 	 4.404599 
22.833030 	 4.384896 
23.862780 	 4.365267 
24.836250 	 4.342370 
25.833440 	 4.319844 
26.838790 	 4.298882 
27.796310 	 4.277608 
28.790270 	 4.254402 
29.777210 	 4.230897 
30.771330 	 4.208773 
31.775110 	 4.186692 
32.789180 	 4.168064 
33.811770 	 4.151858 
34.826190 	 4.132347 
35.822320 	 4.112102 
36.813420 	 4.092135 
37.797390 	 4.071967 
38.783230 	 4.055620 
39.804680 	 4.039135 
40.813930 	 4.021995 
41.811830 	 4.001671 
42.800360 	 3.979449 
43.783230 	 3.959801 
44.783450 	 3.941534 
45.806270 	 3.924188 
46.828000 	 3.908291 
47.830970 	 3.890960 
48.822180 	 3.872808 
49.794880 	 3.859820 
50.773770 	 3.846051 
51.776570 	 3.831074 
52.759290 	 3.818573 
53.761210 	 3.802885 
54.764260 	 3.786343 
55.756320 	 3.774354 
56.758770 	 3.757867 
57.752400 	 3.744512 
58.756110 	 3.731764 
59.770160 	 3.717433 
60.781370 	 3.708565 
61.783630 	 3.695095 
62.790490 	 3.682473 
63.776500 	 3.671497 
64.766660 	 3.654953 
65.762370 	 3.644651 
66.727620 	 3.632889 
67.708570 	 3.617221 
68.720510 	 3.605461 
69.715100 	 3.591673 
70.729970 	 3.581273 
71.757490 	 3.574395 
72.764130 	 3.565650 
73.790040 	 3.557922 
74.804620 	 3.546447 
75.783290 	 3.534295 
76.777090 	 3.525902 
77.768620 	 3.513824 
78.752370 	 3.503348 
79.758340 	 3.490601 
80.744710 	 3.477820 
81.756040 	 3.466276 
82.769210 	 3.455820 
83.777020 	 3.449191 
84.794750 	 3.441377 
85.764510 	 3.431371 
86.780150 	 3.422036 
87.803790 	 3.414241 
88.769470 	 3.406628 
89.776580 	 3.402957 
90.768110 	 3.397201 
91.764970 	 3.388802 
92.791310 	 3.378256 
93.811780 	 3.367754 
94.831210 	 3.359521 
95.809780 	 3.348968 
96.801900 	 3.341425 
97.786060 	 3.334594 
98.770370 	 3.326869 
99.782840 	 3.322840 
100.800200 	 3.319927 
101.806400 	 3.312060 
102.782300 	 3.304461 
103.776800 	 3.295773 
104.782900 	 3.283795 
105.780400 	 3.275087 
106.794000 	 3.266951 
107.784900 	 3.260518 
108.757700 	 3.255046 
109.751700 	 3.251395 
110.737300 	 3.251025 
111.754300 	 3.248261 
112.750800 	 3.245069 
113.765400 	 3.242722 
114.779800 	 3.234881 
115.746400 	 3.227491 
116.759900 	 3.222330 
117.747000 	 3.214535 
118.723500 	 3.209223 
119.732600 	 3.205260 
120.722500 	 3.203436 
121.747900 	 3.203768 
122.792500 	 3.203605 
123.813100 	 3.204552 
124.846500 	 3.201672 
125.807900 	 3.197997 
126.785000 	 3.197225 
127.760600 	 3.194192 
128.725400 	 3.191101 
129.737200 	 3.189721 
130.741500 	 3.186866 
131.730200 	 3.185081 
132.728000 	 3.186406 
133.728600 	 3.185147 
134.703800 	 3.184887 
135.701800 	 3.185084 
136.710400 	 3.183878 
137.691400 	 3.187282 
138.710400 	 3.189310 
139.730300 	 3.190765 
140.730600 	 3.192931 
141.757200 	 3.191675 
142.746800 	 3.191591 
143.746000 	 3.192794 
144.741800 	 3.194323 
145.729900 	 3.195707 
146.726800 	 3.196185 
147.712100 	 3.198988 
148.705900 	 3.203840 
149.718900 	 3.209597 
150.740800 	 3.217376 
151.768800 	 3.221791 
152.762300 	 3.222242 
153.741400 	 3.223274 
154.739900 	 3.222190 
155.715100 	 3.221338 
156.740100 	 3.221264 
157.739300 	 3.222081 
158.713500 	 3.224186 
159.725300 	 3.228211 
160.718300 	 3.235319 
161.746500 	 3.242522 
162.755600 	 3.247384 
163.774100 	 3.250846 
164.770300 	 3.251748 
165.735300 	 3.249483 
166.737300 	 3.250177 
167.713700 	 3.251156 
168.679600 	 3.252217 
169.699200 	 3.254514 
170.715500 	 3.259147 
171.711700 	 3.262878 
172.755200 	 3.266876 
173.777000 	 3.272418 
174.772900 	 3.274765 
175.777600 	 3.276264 
176.769100 	 3.278890 
177.750700 	 3.281770 
178.743900 	 3.279609 
179.742500 	 3.280948 
180.737700 	 3.282849 
181.725100 	 3.281711 
182.729400 	 3.284990 
183.740800 	 3.286998 
184.748400 	 3.286999 
185.744700 	 3.285135 
186.728300 	 3.285609 
187.727200 	 3.287563 
188.719800 	 3.288839 
189.726000 	 3.292292 
190.731000 	 3.293412 
191.724300 	 3.289989 
192.739000 	 3.286531 
193.754800 	 3.286602 
194.756400 	 3.283081 
195.738900 	 3.280438 
196.723600 	 3.278116 
197.685900 	 3.272892 
198.680300 	 3.271698 
199.704000 	 3.273663 
200.711800 	 3.274194 
201.740800 	 3.271961 
202.753700 	 3.267345 
203.765200 	 3.259398 
204.760900 	 3.250380 
205.740400 	 3.245692 
206.727600 	 3.243141 
207.697200 	 3.237803 
208.678400 	 3.238555 
209.687600 	 3.235206 
210.666000 	 3.231521 
211.673100 	 3.231561 
212.692100 	 3.225018 
213.683300 	 3.222612 
214.707100 	 3.218294 
215.697900 	 3.215345 
216.677000 	 3.211591 
217.684100 	 3.208483 
218.656100 	 3.199946 
219.667900 	 3.194400 
220.671600 	 3.192137 
221.665700 	 3.183867 
222.677700 	 3.186770 
223.672100 	 3.181478 
224.682900 	 3.172135 
225.703100 	 3.171460 
226.702800 	 3.162859 
227.690200 	 3.157880 
228.688200 	 3.155083 
229.659700 	 3.144778 
230.669300 	 3.140457 
231.680300 	 3.135257 
232.675600 	 3.131266 
233.682100 	 3.129705 
234.679500 	 3.124080 
235.659500 	 3.117815 
236.651700 	 3.113429 
237.648800 	 3.110271 
238.659000 	 3.108948 
239.669100 	 3.106704 
240.677000 	 3.100822 
241.689700 	 3.093960 
242.651500 	 3.085261 
243.651700 	 3.080051 
244.662500 	 3.077982 
245.629100 	 3.071301 
246.658200 	 3.067180 
247.655100 	 3.062351 
248.632400 	 3.056681 
249.668200 	 3.057966 
250.679200 	 3.059082 
251.722300 	 3.058367 
252.756500 	 3.055902 
253.755100 	 3.049583 
254.764100 	 3.043406 
255.725000 	 3.035315 
256.688200 	 3.030612 
257.708800 	 3.027540 
258.676200 	 3.022544 
259.669600 	 3.021228 
260.676500 	 3.021565 
261.644100 	 3.020321 
262.662000 	 3.020214 
263.679900 	 3.021016 
264.693600 	 3.016870 
265.707100 	 3.013803 
266.691000 	 3.009853 
267.695300 	 3.005657 
268.679100 	 3.003015 
269.648100 	 3.001659 
270.667300 	 3.004356 
271.656400 	 3.005254 
272.658900 	 3.006683 
273.693500 	 3.009330 
274.697200 	 3.007709 
275.705600 	 3.009814 
276.719500 	 3.013430 
277.698500 	 3.012294 
278.679900 	 3.010709 
279.674000 	 3.008825 
280.653900 	 3.006351 
281.650300 	 3.008153 
282.660300 	 3.011770 
283.663900 	 3.015262 
284.669300 	 3.016835 
285.661500 	 3.016085 
286.626700 	 3.018450 
287.623300 	 3.020931 
288.626000 	 3.025869 
289.645100 	 3.032665 
290.671800 	 3.034493 
291.663000 	 3.034304 
292.682100 	 3.034604 
293.655600 	 3.033619 
294.649000 	 3.037156 
295.646300 	 3.038694 
296.621200 	 3.040211 
297.643000 	 3.043833 
298.640300 	 3.046467 
299.643700 	 3.054983 
300.664600 	 3.061139 
301.676300 	 3.065758 
302.693300 	 3.070515 
303.722300 	 3.071378 
304.702900 	 3.072604 
305.699800 	 3.075831 
306.678200 	 3.077720 
307.652600 	 3.082657 
308.648700 	 3.089689 
309.614600 	 3.095899 
310.637300 	 3.105708 
311.643300 	 3.114083 
312.667100 	 3.121679 
313.696500 	 3.129350 
314.704800 	 3.134038 
315.704700 	 3.139012 
316.681000 	 3.143290 
317.657100 	 3.147669 
318.629300 	 3.153415 
319.603100 	 3.159743 
320.612400 	 3.170258 
321.644300 	 3.181950 
322.657900 	 3.191164 
323.666400 	 3.201403 
324.672500 	 3.209311 
325.656900 	 3.216999 
326.654500 	 3.227558 
327.675800 	 3.236417 
328.655200 	 3.243286 
329.640900 	 3.250105 
330.646400 	 3.257383 
331.629500 	 3.265470 
332.625500 	 3.275409 
333.647700 	 3.285057 
334.640000 	 3.295279 
335.627000 	 3.303483 
336.608200 	 3.313638 
337.605600 	 3.326854 
338.584400 	 3.336651 
339.588600 	 3.349204 
340.629200 	 3.360396 
341.632600 	 3.367877 
342.657700 	 3.378833 
343.673500 	 3.390457 
344.660000 	 3.401758 
345.651600 	 3.413327 
346.614800 	 3.425446 
347.613300 	 3.438292 
348.603600 	 3.451759 
349.591100 	 3.469248 
350.637000 	 3.486094 
351.633400 	 3.500616 
352.663100 	 3.514367 
353.690500 	 3.528549 
354.682200 	 3.539156 
355.689600 	 3.549740 
356.666400 	 3.563458 
357.638600 	 3.573990 
358.615100 	 3.589473 
359.592600 	 3.607548 
360.593800 	 3.619483 
361.608300 	 3.636292 
362.605500 	 3.652893 
363.629500 	 3.667279 
364.642500 	 3.686457 
365.632400 	 3.705366 
366.639800 	 3.723144 
367.613600 	 3.741195 
368.599700 	 3.759741 
369.609200 	 3.776442 
370.606600 	 3.794268 
371.616100 	 3.817363 
372.615900 	 3.839755 
373.604000 	 3.860757 
374.622300 	 3.883294 
375.601800 	 3.904714 
376.596600 	 3.925996 
377.605800 	 3.949773 
378.585300 	 3.971402 
379.593400 	 3.995819 
380.611700 	 4.022305 
381.609500 	 4.047531 
382.636900 	 4.075737 
383.661600 	 4.099820 
384.637000 	 4.123600 
385.639800 	 4.149451 
386.627300 	 4.173682 
387.597500 	 4.201038 
388.603300 	 4.230629 
389.600300 	 4.259335 
390.586700 	 4.288863 
391.622900 	 4.319097 
392.631100 	 4.348739 
393.628300 	 4.380300 
394.656000 	 4.411200 
395.628200 	 4.438838 
396.607500 	 4.469058 
397.591600 	 4.499761 
398.577500 	 4.536062 
399.608000 	 4.575865 
400.620800 	 4.614740 
401.665600 	 4.654777 
402.670200 	 4.691116 
403.656800 	 4.729039 
404.690600 	 4.768195 
405.678400 	 4.805143 
406.679300 	 4.844326 
407.692100 	 4.884322 
408.668300 	 4.925549 
409.635500 	 4.973739 
410.636000 	 5.023941 
411.638900 	 5.075418 
412.644000 	 5.125951 
413.669300 	 5.173611 
414.667700 	 5.219661 
415.639400 	 5.263876 
416.609500 	 5.312109 
417.603200 	 5.365929 
418.587900 	 5.419219 
419.585600 	 5.476996 
420.623000 	 5.540393 
421.625900 	 5.598211 
422.629400 	 5.661747 
423.659300 	 5.726378 
424.650600 	 5.784200 
425.627300 	 5.848055 
426.628400 	 5.910693 
427.595600 	 5.974348 
428.562900 	 6.041270 
429.597200 	 6.111330 
430.607700 	 6.189195 
431.631500 	 6.264015 
432.649400 	 6.340750 
433.629000 	 6.418398 
434.618100 	 6.488157 
435.599700 	 6.563823 
436.614200 	 6.646307 
437.603800 	 6.728559 
438.589900 	 6.818466 
439.568700 	 6.912979 
440.544900 	 7.005020 
441.558900 	 7.101859 
442.573400 	 7.199534 
443.609000 	 7.300327 
444.621700 	 7.398769 
445.613400 	 7.495106 
446.604900 	 7.596526 
447.570300 	 7.697143 
448.575700 	 7.808362 
449.587100 	 7.934099 
450.594100 	 8.056559 
451.606700 	 8.182481 
452.620500 	 8.311222 
453.627300 	 8.432022 
454.640000 	 8.559212 
455.647500 	 8.690396 
456.632900 	 8.821842 
457.618700 	 8.960368 
458.597400 	 9.100578 
459.585000 	 9.249783 
460.576200 	 9.405663 
461.590100 	 9.564741 
462.595400 	 9.732534 
463.610300 	 9.894716 
464.615600 	 10.055100 
465.593100 	 10.222580 
466.567800 	 10.387140 
467.557300 	 10.562660 
468.568800 	 10.750990 
469.557100 	 10.941940 
470.568100 	 11.143960 
471.577400 	 11.348070 
472.560500 	 11.549950 
473.571400 	 11.757640 
474.578800 	 11.964300 
475.568300 	 12.176140 
476.570200 	 12.390400 
477.560300 	 12.605790 
478.561900 	 12.828250 
479.541700 	 13.055130 
480.527100 	 13.291730 
481.567100 	 13.539900 
482.587000 	 13.778340 
483.604500 	 14.014950 
484.625000 	 14.244800 
485.581600 	 14.456720 
486.537600 	 14.682210 
487.533700 	 14.908620 
488.514700 	 15.133880 
489.517200 	 15.367390 
490.536800 	 15.593470 
491.549800 	 15.813540 
492.563000 	 16.032990 
493.568100 	 16.247980 
494.580200 	 16.461900 
495.587400 	 16.665650 
496.565300 	 16.865460 
497.557500 	 17.071200 
498.531100 	 17.270680 
499.527000 	 17.488520 
500.573400 	 17.715480 
501.600900 	 17.932860 
502.624700 	 18.158940 
503.611900 	 18.379060 
504.586700 	 18.590930 
505.584600 	 18.810550 
506.595600 	 19.033630 
507.613400 	 19.260470 
508.621500 	 19.492060 
509.622800 	 19.726900 
510.632100 	 19.967800 
511.618000 	 20.199570 
512.604400 	 20.434200 
513.607300 	 20.674620 
514.563000 	 20.900420 
515.556600 	 21.132170 
516.545200 	 21.372780 
517.521800 	 21.605730 
518.518500 	 21.851490 
519.519500 	 22.110460 
520.535200 	 22.370810 
521.537700 	 22.631960 
522.551300 	 22.888990 
523.559100 	 23.141710 
524.552800 	 23.391370 
525.542600 	 23.645150 
526.562600 	 23.910170 
527.556800 	 24.172200 
528.549300 	 24.433570 
529.568400 	 24.700770 
530.536700 	 24.953880 
531.552100 	 25.216660 
532.552200 	 25.488470 
533.551400 	 25.757270 
534.561000 	 26.039810 
535.555800 	 26.322090 
536.558100 	 26.595030 
537.543000 	 26.869700 
538.538900 	 27.141710 
539.530000 	 27.406410 
540.516400 	 27.667760 
541.513100 	 27.928170 
542.509300 	 28.191890 
543.501800 	 28.458040 
544.516100 	 28.738250 
545.551300 	 29.033470 
546.575400 	 29.319030 
547.583300 	 29.604250 
548.590800 	 29.884140 
549.559900 	 30.141330 
550.544200 	 30.402690 
551.541600 	 30.667130 
552.527200 	 30.926810 
553.538500 	 31.194390 
554.548600 	 31.467590 
555.561200 	 31.744290 
556.563900 	 32.022250 
557.571900 	 32.301170 
558.599300 	 32.581700 
559.590800 	 32.841920 
560.594800 	 33.092240 
561.592500 	 33.345370 
562.539100 	 33.582820 
563.543200 	 33.831160 
564.547900 	 34.093190 
565.536300 	 34.345110 
566.551300 	 34.599940 
567.562900 	 34.852810 
568.551600 	 35.093530 
569.533900 	 35.330150 
570.526900 	 35.560390 
571.500100 	 35.791360 
572.493300 	 36.017740 
573.493000 	 36.242580 
574.512200 	 36.476980 
575.518100 	 36.703690 
576.525100 	 36.930110 
577.569600 	 37.161780 
578.573400 	 37.373730 
579.569800 	 37.574120 
580.584500 	 37.770100 
581.536700 	 37.952400 
582.522400 	 38.140980 
583.519300 	 38.337690 
584.514500 	 38.534730 
585.549400 	 38.734140 
586.571000 	 38.920800 
587.569600 	 39.097760 
588.581100 	 39.263280 
589.580200 	 39.413510 
590.557600 	 39.563640 
591.558200 	 39.702620 
592.526700 	 39.838830 
593.513400 	 39.982190 
594.508400 	 40.122520 
595.518700 	 40.269510 
596.550900 	 40.417610 
597.558300 	 40.549490 
598.574200 	 40.672310 
599.577500 	 40.778870 
600.552100 	 40.868240 
601.543400 	 40.960220 
602.530600 	 41.046120 
603.530300 	 41.135360 
604.530500 	 41.227470 
605.530800 	 41.313080 
606.537900 	 41.399670 
607.558400 	 41.474370 
608.588700 	 41.544270 
609.639400 	 41.607940 
610.647700 	 41.649960 
611.633700 	 41.687010 
612.616100 	 41.717980 
613.563400 	 41.735470 
614.557300 	 41.764840 
615.557100 	 41.794470 
616.544900 	 41.812920 
617.555100 	 41.832230 
618.563600 	 41.838080 
619.546800 	 41.830070 
620.542400 	 41.815500 
621.542800 	 41.797500 
622.531700 	 41.783970 
623.530800 	 41.766750 
624.550200 	 41.752970 
625.543700 	 41.738110 
626.537700 	 41.703870 
627.557100 	 41.669440 
628.549900 	 41.630150 
629.541300 	 41.570030 
630.524800 	 41.512590 
631.511200 	 41.451270 
632.497500 	 41.381010 
633.489300 	 41.321040 
634.510700 	 41.266110 
635.512800 	 41.209310 
636.543300 	 41.144820 
637.542100 	 41.064030 
638.519300 	 40.978840 
639.502200 	 40.877910 
640.467300 	 40.776090 
641.464500 	 40.685740 
642.454500 	 40.579450 
643.445900 	 40.479130 
644.442400 	 40.388210 
645.453300 	 40.285950 
646.473900 	 40.188720 
647.483800 	 40.090370 
648.514600 	 39.978680 
649.509800 	 39.859940 
650.509100 	 39.734680 
651.511500 	 39.604040 
652.479700 	 39.471250 
653.453400 	 39.343330 
654.465800 	 39.224930 
655.473300 	 39.103150 
656.483700 	 38.979180 
657.518100 	 38.856780 
658.515400 	 38.720040 
659.515900 	 38.580720 
660.534700 	 38.444840 
661.529100 	 38.300580 
662.534500 	 38.159320 
663.523200 	 38.019120 
664.500400 	 37.871600 
665.524800 	 37.727020 
666.516500 	 37.581460 
667.502800 	 37.434570 
668.512100 	 37.287720 
669.459400 	 37.137280 
670.436500 	 36.989340 
671.428200 	 36.840030 
672.419800 	 36.693540 
673.452100 	 36.552940 
674.439100 	 36.406770 
675.467200 	 36.263500 
676.459800 	 36.117380 
677.438400 	 35.962630 
678.454100 	 35.813810 
679.447100 	 35.663560 
680.449800 	 35.515290 
681.451700 	 35.371070 
682.450600 	 35.222840 
683.426800 	 35.076730 
684.444900 	 34.936920 
685.445600 	 34.792270 
686.492600 	 34.659490 
687.528000 	 34.520610 
688.513800 	 34.373810 
689.540000 	 34.230920 
690.502600 	 34.073860 
691.484600 	 33.926520 
692.483300 	 33.783410 
693.452400 	 33.641520 
694.451000 	 33.508880 
695.464600 	 33.373860 
696.479500 	 33.236780 
697.496100 	 33.103520 
698.511400 	 32.968040 
699.519100 	 32.833520 
700.512000 	 32.700490 
701.514700 	 32.565090 
702.486300 	 32.431870 
703.455200 	 32.297650 
704.457600 	 32.170160 
705.469100 	 32.047650 
706.479400 	 31.919790 
707.500200 	 31.797650 
708.518200 	 31.673610 
709.497400 	 31.544010 
710.509900 	 31.422660 
711.546200 	 31.303940 
712.534300 	 31.183800 
713.565600 	 31.066390 
714.560900 	 30.949150 
715.538000 	 30.828010 
716.528800 	 30.708980 
717.512500 	 30.593890 
718.536600 	 30.481290 
719.521500 	 30.364990 
720.519500 	 30.251880 
721.498400 	 30.141230 
722.442700 	 30.027740 
723.444600 	 29.924060 
724.450700 	 29.823150 
725.492600 	 29.717350 
726.540000 	 29.613690 
727.541900 	 29.508330 
728.526900 	 29.399940 
729.502100 	 29.295450 
730.488800 	 29.193630 
731.487100 	 29.093450 
732.487100 	 28.994410 
733.467500 	 28.897840 
734.464700 	 28.806100 
735.476600 	 28.713240 
736.490500 	 28.622430 
737.538000 	 28.534350 
738.550000 	 28.439010 
739.532800 	 28.343940 
740.522400 	 28.251110 
741.478100 	 28.156260 
742.455300 	 28.067340 
743.451200 	 27.982790 
744.448400 	 27.900310 
745.467400 	 27.819100 
746.471700 	 27.737970 
747.480000 	 27.656620 
748.475200 	 27.573680 
749.460800 	 27.490920 
750.483600 	 27.411420 
751.469900 	 27.328930 
752.481800 	 27.247040 
753.481300 	 27.168460 
754.473700 	 27.089560 
755.487300 	 27.015340 
756.492200 	 26.943090 
757.506200 	 26.868720 
758.508500 	 26.794490 
759.493800 	 26.719530 
760.485500 	 26.645770 
761.478000 	 26.575950 
762.482600 	 26.506750 
763.513400 	 26.439490 
764.526700 	 26.371310 
765.533400 	 26.299830 
766.524700 	 26.229870 
767.507900 	 26.160580 
768.510700 	 26.093190 
769.511500 	 26.027760 
770.503900 	 25.961570 
771.499400 	 25.896970 
772.481800 	 25.834350 
773.468300 	 25.774480 
774.467800 	 25.715720 
775.486200 	 25.657230 
776.475500 	 25.594780 
777.480300 	 25.533980 
778.496300 	 25.472290 
779.474200 	 25.409380 
780.471500 	 25.351030 
781.456700 	 25.292770 
782.433200 	 25.237120 
783.426000 	 25.183280 
784.441300 	 25.130680 
785.465300 	 25.078010 
786.485300 	 25.023980 
787.504200 	 24.971210 
788.533300 	 24.917780 
789.536700 	 24.860980 
790.532100 	 24.806740 
791.521400 	 24.752870 
792.497900 	 24.698750 
793.479200 	 24.649850 
794.488200 	 24.602150 
795.496900 	 24.556210 
796.499500 	 24.509570 
797.510400 	 24.462720 
798.019400 	 24.370730 
798.069000 	 24.255450 
797.579800 	 24.123050 
796.622100 	 23.972440 
795.617500 	 23.850690 
794.602700 	 23.737870 
793.633600 	 23.631670 
792.642500 	 23.530400 
791.664700 	 23.434050 
790.664200 	 23.339870 
789.661000 	 23.248380 
788.633300 	 23.159210 
787.614100 	 23.071370 
786.613200 	 22.987300 
785.610600 	 22.904940 
784.624000 	 22.824320 
783.641800 	 22.747550 
782.657500 	 22.670910 
781.661600 	 22.595380 
780.660800 	 22.521630 
779.647500 	 22.446090 
778.627900 	 22.373300 
777.612200 	 22.301010 
776.590800 	 22.228470 
775.582300 	 22.157360 
774.578000 	 22.084660 
773.571800 	 22.014700 
772.608000 	 21.947320 
771.624400 	 21.881180 
770.621000 	 21.817410 
769.644200 	 21.753800 
768.616500 	 21.688260 
767.622400 	 21.623890 
766.646300 	 21.559720 
765.639600 	 21.495560 
764.641900 	 21.433850 
763.626000 	 21.371950 
762.619600 	 21.312120 
761.613000 	 21.251030 
760.621200 	 21.192430 
759.633800 	 21.134710 
758.628800 	 21.073660 
757.615600 	 21.015230 
756.627200 	 20.956160 
755.618500 	 20.896840 
754.608000 	 20.840290 
753.662900 	 20.786940 
752.653800 	 20.730660 
751.667600 	 20.676640 
750.679600 	 20.622630 
749.628500 	 20.565440 
748.612800 	 20.508750 
747.592300 	 20.452310 
746.595600 	 20.397230 
745.604600 	 20.342080 
744.615600 	 20.290860 
743.633900 	 20.240390 
742.643400 	 20.188030 
741.632800 	 20.134830 
740.647500 	 20.082900 
739.637900 	 20.026680 
738.632400 	 19.969800 
737.658400 	 19.916380 
736.641800 	 19.859970 
735.624000 	 19.808800 
734.616400 	 19.759340 
733.611300 	 19.710900 
732.621500 	 19.662730 
731.647000 	 19.612540 
730.668000 	 19.563740 
729.667400 	 19.512080 
728.670600 	 19.459140 
727.689600 	 19.407870 
726.673500 	 19.355540 
725.683100 	 19.304700 
724.689100 	 19.258300 
723.690800 	 19.209170 
722.682300 	 19.159920 
721.689000 	 19.109940 
720.696900 	 19.057190 
719.693600 	 19.006160 
718.712100 	 18.953000 
717.690200 	 18.900670 
716.682600 	 18.850590 
715.685300 	 18.800290 
714.676300 	 18.751930 
713.706100 	 18.704800 
712.708400 	 18.655510 
711.710000 	 18.607050 
710.725700 	 18.559020 
709.693700 	 18.507910 
708.697500 	 18.457270 
707.650300 	 18.405460 
706.625700 	 18.355140 
705.647600 	 18.305380 
704.632300 	 18.255700 
703.649300 	 18.206750 
702.658600 	 18.156270 
701.646200 	 18.104960 
700.640100 	 18.053420 
699.625500 	 18.001350 
698.609300 	 17.946820 
697.613000 	 17.894670 
696.616900 	 17.842570 
695.645400 	 17.792280 
694.649900 	 17.742960 
693.646500 	 17.694930 
692.656900 	 17.648290 
691.656500 	 17.596950 
690.668600 	 17.549030 
689.679000 	 17.497830 
688.682700 	 17.443150 
687.662000 	 17.390950 
686.630600 	 17.335910 
685.613500 	 17.279490 
684.613800 	 17.225140 
683.625800 	 17.172410 
682.654800 	 17.119700 
681.660900 	 17.067260 
680.642000 	 17.013950 
679.629300 	 16.960070 
678.595500 	 16.901690 
677.608300 	 16.845180 
676.631900 	 16.791230 
675.638800 	 16.732110 
674.665300 	 16.678110 
673.654200 	 16.625920 
672.648400 	 16.569940 
671.663900 	 16.516920 
670.692000 	 16.463750 
669.691500 	 16.406040 
668.685500 	 16.347510 
667.676000 	 16.287640 
666.668200 	 16.227170 
665.680100 	 16.166120 
664.680100 	 16.106200 
663.707400 	 16.050540 
662.708600 	 15.990920 
661.698200 	 15.930960 
660.709400 	 15.872700 
659.684400 	 15.808100 
658.654500 	 15.742310 
657.646100 	 15.679970 
656.634600 	 15.613560 
655.619800 	 15.548990 
654.612500 	 15.488880 
653.631100 	 15.429240 
652.644400 	 15.371000 
651.685000 	 15.311350 
650.722300 	 15.249070 
649.727800 	 15.180340 
648.698700 	 15.108120 
647.667100 	 15.036720 
646.648600 	 14.964380 
645.610800 	 14.893630 
644.622600 	 14.827360 
643.629800 	 14.761230 
642.623300 	 14.695090 
641.631500 	 14.629630 
640.637900 	 14.560190 
639.655000 	 14.490350 
638.691900 	 14.417860 
637.720000 	 14.342460 
636.723300 	 14.268470 
635.695400 	 14.191510 
634.667400 	 14.118650 
633.661800 	 14.049120 
632.670000 	 13.977880 
631.700500 	 13.906770 
630.714100 	 13.831030 
629.716400 	 13.751230 
628.708800 	 13.670220 
627.694900 	 13.586730 
626.691400 	 13.505520 
625.699800 	 13.427560 
624.679100 	 13.346020 
623.676800 	 13.268520 
622.651600 	 13.189790 
621.619900 	 13.108070 
620.639200 	 13.033230 
619.650100 	 12.952110 
618.672200 	 12.872240 
617.680800 	 12.789340 
616.679000 	 12.703570 
615.685900 	 12.622330 
614.710000 	 12.538230 
613.725700 	 12.455700 
612.749100 	 12.376230 
611.749700 	 12.288100 
610.731100 	 12.200730 
609.735100 	 12.111430 
608.718500 	 12.016670 
607.714500 	 11.928400 
606.696500 	 11.838040 
605.680400 	 11.747270 
604.680200 	 11.659360 
603.659900 	 11.573240 
602.698700 	 11.487890 
601.703500 	 11.403130 
600.709700 	 11.314720 
599.738800 	 11.224200 
598.711100 	 11.127540 
597.713200 	 11.031180 
596.706400 	 10.938270 
595.692700 	 10.839700 
594.693200 	 10.747820 
593.688100 	 10.657460 
592.692800 	 10.561670 
591.710000 	 10.469020 
590.708400 	 10.375080 
589.714000 	 10.278100 
588.716300 	 10.180050 
587.709500 	 10.083760 
586.708500 	 9.986971 
585.716500 	 9.888644 
584.702100 	 9.790958 
583.687500 	 9.695958 
582.686500 	 9.599760 
581.674100 	 9.504499 
580.694000 	 9.412717 
579.700100 	 9.313062 
578.699700 	 9.212014 
577.700500 	 9.113008 
576.676300 	 9.011150 
575.669300 	 8.912210 
574.678100 	 8.815363 
573.682400 	 8.717434 
572.686600 	 8.619160 
571.697200 	 8.521003 
570.693600 	 8.422234 
569.689700 	 8.322721 
568.701500 	 8.221670 
567.704000 	 8.122423 
566.695300 	 8.022341 
565.691900 	 7.922293 
564.690900 	 7.827457 
563.703900 	 7.733024 
562.754800 	 7.640889 
561.777900 	 7.550197 
560.781900 	 7.455001 
559.768200 	 7.357779 
558.722400 	 7.257737 
557.694600 	 7.155908 
556.684300 	 7.055827 
555.689900 	 6.955307 
554.686500 	 6.857365 
553.693400 	 6.762629 
552.708800 	 6.668306 
551.703900 	 6.577044 
550.703900 	 6.485424 
549.706600 	 6.392525 
548.692200 	 6.298442 
547.682700 	 6.201308 
546.693200 	 6.104974 
545.691500 	 6.009473 
544.690000 	 5.915821 
543.695700 	 5.828830 
542.702800 	 5.743253 
541.701200 	 5.656040 
540.712100 	 5.571226 
539.712200 	 5.481513 
538.712400 	 5.391280 
537.706100 	 5.302670 
536.706700 	 5.213900 
535.712300 	 5.127948 
534.730300 	 5.041469 
533.735800 	 4.958989 
532.739200 	 4.877233 
531.755700 	 4.795174 
530.741300 	 4.715875 
529.779100 	 4.635611 
528.774800 	 4.550970 
527.742100 	 4.467981 
526.717500 	 4.386624 
525.685500 	 4.304661 
524.680200 	 4.229939 
523.703700 	 4.157738 
522.746500 	 4.084608 
521.758400 	 4.011121 
520.759800 	 3.936301 
519.751900 	 3.860821 
518.731800 	 3.783337 
517.719400 	 3.708741 
516.697600 	 3.637030 
515.692900 	 3.564318 
514.687100 	 3.496404 
513.717200 	 3.431715 
512.747400 	 3.365855 
511.765500 	 3.302900 
510.804800 	 3.241146 
509.800900 	 3.175439 
508.797900 	 3.108055 
507.776700 	 3.040623 
506.750400 	 2.974901 
505.743100 	 2.912192 
504.737600 	 2.854240 
503.750700 	 2.797804 
502.751000 	 2.738338 
501.749700 	 2.679032 
500.753900 	 2.620828 
499.745200 	 2.561112 
498.724500 	 2.503610 
497.713100 	 2.447656 
496.706200 	 2.389794 
495.695500 	 2.335612 
494.691600 	 2.282361 
493.698200 	 2.232773 
492.696400 	 2.185113 
491.721400 	 2.138015 
490.732700 	 2.092165 
489.721600 	 2.043821 
488.740500 	 1.993428 
487.731100 	 1.945598 
486.735500 	 1.899412 
485.743600 	 1.853931 
484.747300 	 1.813715 
483.743700 	 1.768876 
482.759400 	 1.723546 
481.765900 	 1.679016 
480.734200 	 1.632998 
479.751400 	 1.591143 
478.729800 	 1.547892 
477.707000 	 1.506207 
476.716500 	 1.465282 
475.697400 	 1.424277 
474.721200 	 1.386605 
473.727900 	 1.350961 
472.733400 	 1.313603 
471.750900 	 1.279036 
470.738800 	 1.243147 
469.748900 	 1.205774 
468.750500 	 1.172727 
467.726900 	 1.135788 
466.720400 	 1.103134 
465.726600 	 1.068266 
464.717100 	 1.033129 
463.735100 	 1.000003 
462.746100 	 0.967546 
461.728100 	 0.935110 
460.749900 	 0.903052 
459.756300 	 0.872878 
458.760500 	 0.837757 
457.778700 	 0.805624 
456.754200 	 0.771059 
455.720200 	 0.737405 
454.694200 	 0.704665 
453.692100 	 0.676483 
452.715600 	 0.648977 
451.740400 	 0.614840 
450.759200 	 0.587174 
449.777300 	 0.554141 
448.766800 	 0.521428 
447.754800 	 0.494068 
446.760800 	 0.462289 
445.747700 	 0.428379 
444.738900 	 0.395934 
443.737700 	 0.363144 
442.739000 	 0.329084 
441.729900 	 0.298536 
440.743200 	 0.267064 
439.777400 	 0.236486 
438.778600 	 0.201580 
437.763300 	 0.167449 
436.766600 	 0.136092 
435.744800 	 0.102098 
434.727100 	 0.075055 
433.761100 	 0.051813 
432.789200 	 0.024226 
431.804600 	 -0.002009 
430.831800 	 -0.027660 
429.839100 	 -0.058677 
428.805200 	 -0.085103 
427.790700 	 -0.110275 
426.783800 	 -0.134660 
425.768000 	 -0.158184 
424.778800 	 -0.181402 
423.791700 	 -0.197703 
422.798800 	 -0.215946 
421.798500 	 -0.230507 
420.806700 	 -0.242042 
419.806700 	 -0.259634 
418.790700 	 -0.275987 
417.802600 	 -0.290156 
416.794800 	 -0.304656 
415.781100 	 -0.315940 
414.799100 	 -0.322321 
413.815200 	 -0.328935 
412.838000 	 -0.335347 
411.869400 	 -0.341967 
410.859600 	 -0.348578 
409.854200 	 -0.356664 
408.847700 	 -0.364582 
407.819800 	 -0.370262 
406.834900 	 -0.377974 
405.827500 	 -0.383695 
404.832500 	 -0.387272 
403.835000 	 -0.390698 
402.828100 	 -0.391963 
401.821000 	 -0.392825 
400.812800 	 -0.396052 
399.814600 	 -0.398730 
398.793600 	 -0.402752 
397.777400 	 -0.405762 
396.759300 	 -0.406462 
395.732300 	 -0.405929 
394.760300 	 -0.403257 
393.773700 	 -0.402039 
392.772900 	 -0.402024 
391.790300 	 -0.404018 
390.778500 	 -0.406725 
389.775900 	 -0.409997 
388.767000 	 -0.411468 
387.768000 	 -0.413292 
386.773800 	 -0.413326 
385.764400 	 -0.411891 
384.753500 	 -0.410875 
383.767500 	 -0.405916 
382.773600 	 -0.402868 
381.790500 	 -0.400336 
380.828900 	 -0.398497 
379.826700 	 -0.399295 
378.796100 	 -0.401059 
377.794900 	 -0.400336 
376.785300 	 -0.397881 
375.778700 	 -0.394329 
374.794300 	 -0.390461 
373.781500 	 -0.391383 
372.776600 	 -0.390813 
371.758100 	 -0.392646 
370.771200 	 -0.390988 
369.804900 	 -0.388117 
368.820700 	 -0.389925 
367.842200 	 -0.390112 
366.820600 	 -0.391617 
365.806700 	 -0.391135 
364.810200 	 -0.388804 
363.805400 	 -0.388666 
362.818400 	 -0.387602 
361.811000 	 -0.387401 
360.781700 	 -0.386367 
359.794900 	 -0.382725 
358.797300 	 -0.379730 
357.801900 	 -0.377516 
356.837400 	 -0.375656 
355.831300 	 -0.377539 
354.836300 	 -0.380071 
353.835000 	 -0.382665 
352.804300 	 -0.384270 
351.796500 	 -0.383514 
350.785200 	 -0.382816 
349.782500 	 -0.381986 
348.774000 	 -0.379860 
347.789500 	 -0.379706 
346.797600 	 -0.379148 
345.814800 	 -0.378404 
344.829200 	 -0.379711 
343.823800 	 -0.379655 
342.789600 	 -0.380385 
341.766200 	 -0.379131 
340.757000 	 -0.377120 
339.718100 	 -0.373180 
338.742900 	 -0.369772 
337.741800 	 -0.368708 
336.752600 	 -0.369990 
335.787600 	 -0.372850 
334.792300 	 -0.374886 
333.798400 	 -0.377018 
332.789300 	 -0.376068 
331.797800 	 -0.375081 
330.797100 	 -0.374180 
329.792900 	 -0.372266 
328.823500 	 -0.370112 
327.814300 	 -0.366479 
326.817900 	 -0.364959 
325.827400 	 -0.362691 
324.819900 	 -0.364391 
323.832000 	 -0.372565 
322.826200 	 -0.376606 
321.819700 	 -0.379735 
320.816100 	 -0.380591 
319.807600 	 -0.374144 
318.820700 	 -0.372885 
317.815900 	 -0.377087 
316.812900 	 -0.380409 
315.800500 	 -0.384736 
314.790800 	 -0.384463 
313.796000 	 -0.380736 
312.789300 	 -0.380739 
311.813100 	 -0.380643 
310.807400 	 -0.383076 
309.804800 	 -0.385302 
308.843100 	 -0.382139 
307.831800 	 -0.383432 
306.835400 	 -0.382722 
305.867100 	 -0.381476 
304.847900 	 -0.382803 
303.833500 	 -0.380551 
302.835700 	 -0.379960 
301.791400 	 -0.381588 
300.789200 	 -0.380116 
299.801300 	 -0.383099 
298.796800 	 -0.385267 
297.807500 	 -0.388540 
296.786100 	 -0.394800 
295.800700 	 -0.397898 
294.806200 	 -0.400302 
293.809300 	 -0.401890 
292.833300 	 -0.403400 
291.819800 	 -0.405418 
290.808900 	 -0.408033 
289.806500 	 -0.408217 
288.794500 	 -0.407757 
287.797900 	 -0.405838 
286.815000 	 -0.405139 
285.825300 	 -0.404239 
284.839800 	 -0.405327 
283.847900 	 -0.406001 
282.842400 	 -0.405190 
281.838400 	 -0.406240 
280.809600 	 -0.407776 
279.816300 	 -0.410555 
278.821800 	 -0.415732 
277.823200 	 -0.420635 
276.831800 	 -0.423889 
275.830600 	 -0.428298 
274.829300 	 -0.431258 
273.843600 	 -0.435599 
272.852300 	 -0.441684 
271.828200 	 -0.444900 
270.820200 	 -0.448885 
269.790600 	 -0.450337 
268.784100 	 -0.449059 
267.815800 	 -0.450643 
266.845400 	 -0.451798 
265.881500 	 -0.454885 
264.883500 	 -0.460898 
263.867600 	 -0.465075 
262.831500 	 -0.469970 
261.806700 	 -0.473944 
260.813200 	 -0.477756 
259.809700 	 -0.484265 
258.813400 	 -0.488362 
257.822700 	 -0.490631 
256.816700 	 -0.493974 
255.835500 	 -0.495113 
254.863100 	 -0.498753 
253.855600 	 -0.507435 
252.856200 	 -0.514479 
251.830700 	 -0.521853 
250.806200 	 -0.528467 
249.801700 	 -0.531660 
248.805100 	 -0.533208 
247.822900 	 -0.536204 
246.823800 	 -0.540655 
245.821300 	 -0.544780 
244.821300 	 -0.551988 
243.810100 	 -0.560738 
242.818800 	 -0.567044 
241.849600 	 -0.575365 
240.826900 	 -0.585411 
239.820700 	 -0.592442 
238.830900 	 -0.597248 
237.810100 	 -0.604213 
236.825000 	 -0.608100 
235.854700 	 -0.612208 
234.861700 	 -0.620125 
233.858000 	 -0.622420 
232.851700 	 -0.634822 
231.829600 	 -0.644895 
230.802700 	 -0.653517 
229.818100 	 -0.664957 
228.861800 	 -0.665843 
227.886600 	 -0.673273 
226.910900 	 -0.683922 
225.911500 	 -0.696501 
224.887100 	 -0.712978 
223.868500 	 -0.730397 
222.863200 	 -0.747085 
221.851200 	 -0.765007 
220.857700 	 -0.780829 
219.857600 	 -0.793100 
218.852600 	 -0.800852 
217.884800 	 -0.807970 
216.887900 	 -0.816017 
215.906300 	 -0.823745 
214.909000 	 -0.837590 
213.878700 	 -0.853024 
212.881300 	 -0.866069 
211.874900 	 -0.881655 
210.886700 	 -0.895035 
209.897400 	 -0.906278 
208.902000 	 -0.923203 
207.893000 	 -0.941420 
206.897700 	 -0.961437 
205.905000 	 -0.982632 
204.902800 	 -1.000722 
203.913700 	 -1.020377 
202.908900 	 -1.039526 
201.920700 	 -1.060242 
200.898600 	 -1.082600 
199.887900 	 -1.101231 
198.881900 	 -1.118807 
197.884600 	 -1.136186 
196.901800 	 -1.151881 
195.920200 	 -1.171784 
194.912100 	 -1.196100 
193.891300 	 -1.221261 
192.877700 	 -1.248006 
191.871600 	 -1.271227 
190.873700 	 -1.295092 
189.876100 	 -1.319808 
188.884000 	 -1.346389 
187.874100 	 -1.377056 
186.869700 	 -1.406484 
185.866900 	 -1.436526 
184.867900 	 -1.465813 
183.886900 	 -1.495660 
182.889700 	 -1.525998 
181.871600 	 -1.555624 
180.885100 	 -1.584453 
179.853200 	 -1.614102 
178.868400 	 -1.641416 
177.888900 	 -1.668566 
176.875800 	 -1.701516 
175.899300 	 -1.731044 
174.907100 	 -1.766201 
173.919500 	 -1.801560 
172.923900 	 -1.832309 
171.924200 	 -1.865659 
170.913300 	 -1.898094 
169.887300 	 -1.933953 
168.876300 	 -1.973066 
167.882400 	 -2.012740 
166.889000 	 -2.052259 
165.897900 	 -2.089075 
164.897800 	 -2.125104 
163.880100 	 -2.162731 
162.855100 	 -2.199750 
161.839900 	 -2.236629 
160.829400 	 -2.272183 
159.828800 	 -2.307229 
158.840400 	 -2.340104 
157.863200 	 -2.374974 
156.877000 	 -2.412475 
155.879600 	 -2.452813 
154.866500 	 -2.490771 
153.848800 	 -2.530411 
152.850500 	 -2.567798 
151.872700 	 -2.600578 
150.871200 	 -2.644067 
149.885900 	 -2.685708 
148.909500 	 -2.726368 
147.883700 	 -2.769108 
146.892600 	 -2.805206 
145.903700 	 -2.845301 
144.882100 	 -2.884494 
143.889200 	 -2.922037 
142.900800 	 -2.963163 
141.891200 	 -3.001073 
140.890300 	 -3.042459 
139.879100 	 -3.084896 
138.879900 	 -3.129524 
137.876100 	 -3.171743 
136.870200 	 -3.214943 
135.896700 	 -3.255849 
134.881900 	 -3.296908 
133.880900 	 -3.339808 
132.899800 	 -3.384006 
131.885700 	 -3.433669 
130.911100 	 -3.480070 
129.928600 	 -3.526807 
128.900100 	 -3.576383 
127.900300 	 -3.623243 
126.900300 	 -3.669599 
125.891300 	 -3.718079 
124.906800 	 -3.764400 
123.912600 	 -3.809231 
122.911800 	 -3.857852 
121.920700 	 -3.906305 
120.937100 	 -3.955547 
119.950100 	 -4.007483 
118.943600 	 -4.060301 
117.952200 	 -4.112554 
116.952700 	 -4.164749 
115.935800 	 -4.221829 
114.950000 	 -4.278641 
113.965100 	 -4.334936 
112.956400 	 -4.394435 
111.962800 	 -4.451979 
110.947900 	 -4.510753 
109.916700 	 -4.573609 
108.925500 	 -4.639201 
107.941200 	 -4.704960 
106.924100 	 -4.748829 
105.902200 	 -4.821481 
104.894400 	 -4.899076 
103.893200 	 -4.978691 
102.919400 	 -5.069268 
101.957100 	 -5.137643 
100.975800 	 -5.201391 
99.977520 	 -5.263812 
98.952290 	 -5.341213 
97.954800 	 -5.416413 
96.950880 	 -5.495273 
95.933070 	 -5.578039 
94.949220 	 -5.662548 
93.931810 	 -5.746194 
92.929130 	 -5.829580 
91.927320 	 -5.917124 
90.925750 	 -6.003951 
89.933000 	 -6.098195 
88.919510 	 -6.194648 
87.922380 	 -6.289843 
86.921390 	 -6.391473 
85.907900 	 -6.493136 
84.904340 	 -6.597371 
83.905260 	 -6.706062 
82.911090 	 -6.820717 
81.923900 	 -6.932148 
80.927140 	 -7.043276 
79.935430 	 -7.152656 
78.939060 	 -7.260848 
77.923680 	 -7.375676 
76.950370 	 -7.495020 
75.947630 	 -7.624123 
74.941970 	 -7.756201 
73.962820 	 -7.884908 
72.952640 	 -8.014110 
71.967250 	 -8.140541 
70.972740 	 -8.266835 
69.961660 	 -8.400386 
68.950360 	 -8.537423 
67.933360 	 -8.681371 
66.913150 	 -8.827736 
65.923850 	 -8.974245 
64.921280 	 -9.117960 
63.935840 	 -8.245676 
62.969240 	 -8.394746 
61.955110 	 -8.548878 
60.984020 	 -8.708652 
59.976640 	 -9.887897 
58.972300 	 -10.052720 
57.987750 	 -10.219550 
56.944540 	 -10.387310 
55.952110 	 -10.553450 
54.955420 	 -10.716250 
53.968500 	 -10.875240 
53.013060 	 -11.034710 
52.017700 	 -11.199090 
51.020440 	 -11.365450 
50.023860 	 -11.536980 
49.001320 	 -11.723120 
47.995250 	 -11.910490 
46.971850 	 -12.101170 
45.956910 	 -12.295920 
44.968630 	 -12.479820 
43.967310 	 -12.660910 
42.981060 	 -12.846940 
41.973070 	 -13.035560 
40.952530 	 -13.150040 
39.955020 	 -13.318550 
38.958690 	 -13.512520 
37.947460 	 -13.706910 
36.974510 	 -13.973000 
35.976030 	 -14.194940 
34.971770 	 -14.390530 
33.991380 	 -14.575600 
32.989420 	 -14.765340 
31.994170 	 -14.947120 
31.011060 	 -15.124850 
30.008470 	 -15.311530 
28.984030 	 -15.504330 
27.974670 	 -15.697310 
26.966570 	 -15.888300 
25.968420 	 -16.076000 
25.002380 	 -16.256290 
24.030890 	 -16.432740 
23.036640 	 -16.612990 
22.043920 	 -16.793820 
21.047730 	 -16.968610 
20.041210 	 -17.149570 
19.039000 	 -17.331360 
18.047380 	 -17.506450 
17.040670 	 -17.684960 
16.024950 	 -17.856330 
15.039460 	 -18.017310 
14.049450 	 -18.170200 
13.047450 	 -18.316500 
12.063580 	 -18.462910 
11.076260 	 -18.611190 
10.075440 	 -18.767390 
9.055392 	 -18.923400 
8.038898 	 -19.066340 
6.994568 	 -19.204560 
5.981294 	 -19.333430 
4.996269 	 -19.445580 
3.999141 	 -19.563070 
3.012895 	 -19.670200 
2.027969 	 -19.770120 
1.040962 	 -19.871350 
0.034375 	 -19.958250 
-0.958889 	 -20.042210 
-1.942296 	 -20.107690 
-2.906766 	 -20.169450 
-3.868545 	 -20.229350 
-4.848435 	 -20.278170 
-5.847411 	 -20.334180 
-6.851886 	 -20.377200 
-7.823207 	 -20.406870 
-8.796559 	 -20.433020 
-9.775888 	 -20.443600 
-10.783430 	 -20.449620 
-11.817640 	 -20.454050 
-12.829980 	 -20.446210 
-13.847710 	 -20.434100 
-14.854110 	 -20.419380 
-15.842990 	 -20.386820 
-16.843980 	 -20.347400 
-17.843250 	 -20.304900 
-18.829510 	 -20.248100 
-19.831890 	 -20.192410 
-20.839490 	 -20.136130 
-21.862650 	 -20.075160 
-22.874090 	 -20.008960 
-23.873650 	 -19.933690 
-24.879800 	 -19.849930 
-25.836250 	 -19.754560 
-26.821140 	 -19.656100 
-27.820900 	 -19.565800 
-28.806450 	 -19.474390 
-29.816270 	 -19.385740 
-30.821090 	 -19.305490 
-31.826690 	 -19.213930 
-32.842460 	 -19.118470 
-33.857000 	 -19.025960 
-34.888620 	 -18.923950 
-35.889600 	 -18.822220 
-36.857300 	 -18.717310 
-37.853780 	 -18.612190 
-38.804850 	 -18.506170 
-39.789860 	 -18.402050 
-40.846260 	 -18.310260 
-41.857810 	 -18.213650 
-42.890720 	 -18.113830 
-43.910270 	 -18.016610 
-44.858050 	 -17.906370 
-45.829100 	 -17.792240 
-46.821410 	 -17.688540 
-47.805670 	 -17.581720 
-48.811940 	 -17.478690 
-49.835440 	 -17.383730 
-50.828620 	 -17.285310 
-51.830110 	 -17.186700 
-52.835090 	 -17.090100 
-53.839170 	 -16.993540 
-54.859540 	 -16.896970 
-55.857880 	 -16.796830 
-56.861350 	 -16.700120 
-57.846060 	 -16.602740 
-58.800890 	 -16.500640 
-59.811310 	 -16.412780 
-60.817460 	 -16.326420 
-61.821520 	 -16.238240 
-62.858510 	 -16.157030 
-63.844620 	 -16.066760 
-64.832950 	 -15.970310 
-65.831560 	 -15.881400 
-66.814830 	 -15.796700 
-67.831460 	 -15.720660 
-68.828280 	 -15.649340 
-69.832550 	 -15.579680 
-70.839030 	 -15.512940 
-71.845280 	 -15.439390 
-72.851240 	 -15.372250 
-73.878580 	 -15.305990 
-74.872060 	 -15.232750 
-75.865240 	 -15.166030 
-76.868990 	 -15.098510 
-77.814610 	 -15.036580 
-78.799150 	 -14.982890 
-79.792250 	 -14.935880 
-80.798980 	 -14.895700 
-81.809290 	 -14.854260 
-82.824720 	 -14.812710 
-83.821290 	 -14.772060 
-84.807340 	 -14.731100 
-85.818370 	 -14.695220 
-86.836630 	 -14.668950 
-87.848510 	 -14.645670 
-88.855630 	 -14.630060 
-89.855220 	 -14.619060 
-90.832170 	 -14.611270 
-91.819160 	 -14.614670 
-92.813060 	 -14.618230 
-93.827530 	 -14.622870 
-94.842800 	 -14.631400 
-95.842660 	 -14.628820 
-96.836810 	 -14.631370 
-97.802180 	 -14.643080 
-98.806920 	 -14.657370 
-99.799740 	 -14.689030 
-100.793000 	 -14.726540 
-101.799000 	 -14.764380 
-102.796400 	 -14.803010 
-103.781400 	 -14.841380 
-104.797600 	 -14.887500 
-105.823100 	 -14.937870 
-106.815100 	 -14.988250 
-107.839300 	 -15.049460 
-108.828800 	 -15.106410 
-109.817000 	 -15.164980 
-110.821000 	 -15.247020 
-111.818700 	 -15.322440 
-112.853600 	 -15.399990 
-113.860100 	 -15.481620 
-114.854100 	 -15.547740 
-115.848200 	 -15.610640 
-116.808700 	 -15.680040 
-117.810000 	 -15.758630 
-118.812400 	 -15.844340 
-119.820400 	 -15.939420 
-120.839400 	 -16.043700 
-121.835900 	 -16.141420 
-122.845900 	 -16.231540 
-123.843300 	 -16.335420 
-124.864500 	 -16.429850 
-125.857300 	 -16.517400 
-126.834000 	 -16.619000 
-127.843900 	 -16.708570 
-128.812900 	 -16.797630 
-129.809100 	 -16.902990 
-130.830500 	 -17.015340 
-131.816900 	 -17.131900 
-132.832700 	 -17.248620 
-133.851000 	 -17.360590 
-134.861600 	 -17.458300 
-135.851100 	 -17.539330 
-136.829900 	 -17.629380 
-137.818100 	 -17.721080 
-138.801500 	 -17.806500 
-139.821900 	 -17.914910 
-140.829500 	 -18.018470 
-141.826400 	 -18.118660 
-142.828300 	 -18.230750 
-143.831000 	 -18.331590 
-144.830500 	 -18.423580 
-145.856900 	 -18.514180 
-146.854800 	 -18.589900 
-147.831200 	 -18.667470 
-148.860700 	 -18.742740 
-149.858000 	 -18.821900 
-150.878400 	 -18.905410 
-151.910900 	 -18.978300 
-152.877400 	 -19.054920 
-153.859800 	 -19.118680 
-154.835500 	 -19.170330 
-155.834100 	 -19.234950 
-156.835100 	 -19.288000 
-157.837500 	 -19.343470 
-158.849700 	 -19.413300 
-159.833200 	 -19.461780 
-160.828700 	 -19.512450 
-161.826400 	 -19.559110 
-162.830700 	 -19.593380 
-163.835200 	 -19.628760 
-164.846900 	 -19.658480 
-165.846300 	 -19.668360 
-166.821500 	 -19.676720 
-167.801500 	 -19.679930 
-168.794900 	 -19.687910 
-169.802600 	 -19.708410 
-170.825100 	 -19.722510 
-171.847300 	 -19.739970 
-172.869800 	 -19.740990 
-173.868600 	 -19.731230 
-174.861700 	 -19.719760 
-175.855700 	 -19.691730 
-176.834700 	 -19.665610 
-177.815200 	 -19.641700 
-178.799900 	 -19.611270 
-179.778500 	 -19.586580 
-180.775400 	 -19.563630 
-181.768800 	 -19.536050 
-182.775000 	 -19.512670 
-183.783500 	 -19.478030 
-184.798300 	 -19.438630 
-185.800200 	 -19.388220 
-186.778800 	 -19.329280 
-187.784600 	 -19.279820 
-188.777200 	 -19.225730 
-189.801800 	 -19.177750 
-190.805800 	 -19.137380 
-191.796200 	 -19.085270 
-192.768700 	 -19.027660 
-193.757700 	 -18.969550 
-194.765500 	 -18.899840 
-195.763500 	 -18.833480 
-196.781000 	 -18.770690 
-197.775200 	 -18.707350 
-198.776600 	 -18.643970 
-199.763100 	 -18.579670 
-200.760300 	 -18.519080 
-201.768500 	 -18.456000 
-202.759400 	 -18.389040 
-203.775200 	 -18.324010 
-204.763300 	 -18.249610 
-205.727800 	 -18.168000 
-206.707900 	 -18.097420 
-207.707100 	 -18.024160 
-208.693800 	 -17.955130 
-209.716600 	 -17.893950 
-210.729800 	 -17.828250 
-211.732100 	 -17.759640 
-212.751100 	 -17.688290 
-213.748200 	 -17.617130 
-214.760800 	 -17.544080 
-215.755300 	 -17.471990 
-216.744000 	 -17.404500 
-217.736200 	 -17.335780 
-218.729100 	 -17.265930 
-219.728300 	 -17.203180 
-220.749600 	 -17.139350 
-221.764300 	 -17.072800 
-222.791300 	 -17.009150 
-223.809700 	 -16.937850 
-224.801500 	 -16.863280 
-225.798500 	 -16.790070 
-226.782300 	 -16.717270 
-227.789600 	 -16.647350 
-228.802000 	 -16.577890 
-229.808300 	 -16.512840 
-230.797900 	 -16.447090 
-231.768000 	 -16.378420 
-232.749000 	 -16.315520 
-233.747200 	 -16.250830 
-234.748000 	 -16.184420 
-235.774900 	 -16.123920 
-236.768400 	 -16.061680 
-237.740400 	 -15.998500 
-238.761500 	 -15.940910 
-239.739800 	 -15.880760 
-240.753100 	 -15.821080 
-241.798100 	 -15.762740 
-242.789300 	 -15.700680 
-243.776800 	 -15.639370 
-244.777000 	 -15.575130 
-245.751900 	 -15.512000 
-246.772200 	 -15.450800 
-247.799500 	 -15.387580 
-248.793200 	 -15.328130 
-249.808000 	 -15.269340 
-250.777000 	 -15.208040 
-251.785500 	 -15.150980 
-252.781700 	 -15.093570 
-253.758800 	 -15.035690 
-254.760800 	 -14.981100 
-255.733900 	 -14.924830 
-256.731100 	 -14.869250 
-257.730300 	 -14.816110 
-258.728600 	 -14.764190 
-259.732700 	 -14.712570 
-260.749200 	 -14.662630 
-261.772400 	 -14.609550 
-262.788200 	 -14.557480 
-263.790200 	 -14.502920 
-264.808500 	 -14.448920 
-265.785100 	 -14.395350 
-266.770300 	 -14.340370 
-267.771900 	 -14.290260 
-268.763300 	 -14.238250 
-269.766700 	 -14.189030 
-270.806100 	 -14.141240 
-271.822800 	 -14.092190 
-272.823400 	 -14.044620 
-273.835100 	 -13.998560 
-274.803500 	 -13.951170 
-275.788400 	 -13.905270 
-276.771800 	 -13.860410 
-277.773000 	 -13.813270 
-278.773300 	 -13.769580 
-279.771800 	 -13.723890 
-280.794100 	 -13.679040 
-281.767800 	 -13.634670 
-282.756000 	 -13.588310 
-283.788800 	 -13.546390 
-284.762500 	 -13.500870 
-285.776600 	 -13.456820 
-286.791800 	 -13.414880 
-287.745700 	 -13.370350 
-288.752300 	 -13.330000 
-289.760400 	 -13.290580 
-290.762900 	 -13.249950 
-291.791300 	 -13.210070 
-292.787200 	 -13.170290 
-293.775400 	 -13.129450 
-294.766300 	 -13.089580 
-295.736600 	 -13.047520 
-296.738100 	 -13.009060 
-297.764200 	 -12.970070 
-298.758500 	 -12.933360 
-299.765200 	 -12.897980 
-300.780800 	 -12.859870 
-301.777700 	 -12.820860 
-302.769400 	 -12.781270 
-303.760500 	 -12.743000 
-304.746900 	 -12.700650 
-305.736300 	 -12.665920 
-306.748800 	 -12.627940 
-307.746300 	 -12.593020 
-308.719000 	 -12.560110 
-309.723400 	 -12.528920 
-310.730000 	 -12.498510 
-311.743100 	 -12.466750 
-312.767000 	 -12.437980 
-313.773200 	 -12.404340 
-314.755000 	 -12.371030 
-315.771800 	 -12.335540 
-316.767200 	 -12.302240 
-317.744500 	 -12.268250 
-318.754100 	 -12.238570 
-319.736200 	 -12.209630 
-320.746200 	 -12.179050 
-321.766000 	 -12.148380 
-322.759000 	 -12.115630 
-323.773100 	 -12.083300 
-324.760000 	 -12.049160 
-325.749200 	 -12.019240 
-326.750200 	 -11.989700 
-327.743200 	 -11.961630 
-328.757500 	 -11.936130 
-329.758200 	 -11.908380 
-330.747700 	 -11.879780 
-331.742900 	 -11.851910 
-332.728600 	 -11.822590 
-333.707000 	 -11.791690 
-334.711900 	 -11.762840 
-335.705300 	 -11.731850 
-336.694600 	 -11.701820 
-337.699200 	 -11.672950 
-338.687100 	 -11.643990 
-339.686900 	 -11.617490 
-340.721200 	 -11.590100 
-341.737800 	 -11.561710 
-342.763900 	 -11.532730 
-343.767400 	 -11.502310 
-344.745500 	 -11.474000 
-345.738300 	 -11.448980 
-346.706100 	 -11.425830 
-347.720200 	 -11.403580 
-348.744700 	 -11.380010 
-349.734200 	 -11.354810 
-350.753000 	 -11.329650 
-351.741900 	 -11.303720 
-352.709600 	 -11.277610 
-353.716400 	 -11.251250 
-354.718100 	 -11.223380 
-355.708600 	 -11.195680 
-356.722900 	 -11.169090 
-357.714100 	 -11.143120 
-358.701000 	 -11.118220 
-359.685100 	 -11.094350 
-360.647400 	 -11.069320 
-361.635300 	 -11.043160 
-362.635100 	 -11.017840 
-363.633200 	 -10.993820 
-364.658000 	 -10.972190 
-365.678700 	 -10.952890 
-366.674300 	 -10.933600 
-367.705600 	 -10.912820 
-368.695600 	 -10.891460 
-369.681800 	 -10.869710 
-370.710600 	 -10.848060 
-371.687000 	 -10.825760 
-372.699300 	 -10.803360 
-373.729700 	 -10.780440 
-374.728100 	 -10.757430 
-375.741000 	 -10.733550 
-376.733800 	 -10.709980 
-377.718200 	 -10.685540 
-378.672500 	 -10.660180 
-379.666000 	 -10.638310 
-380.681300 	 -10.613330 
-381.688300 	 -10.590680 
-382.726300 	 -10.571130 
-383.720200 	 -10.551610 
-384.691300 	 -10.535390 
-385.672400 	 -10.517440 
-386.665800 	 -10.499690 
-387.684200 	 -10.479270 
-388.705100 	 -10.459440 
-389.713400 	 -10.440400 
-390.730000 	 -10.420750 
-391.716200 	 -10.401100 
-392.722300 	 -10.381820 
-393.722500 	 -10.362920 
-394.698000 	 -10.341460 
-395.689100 	 -10.321480 
-396.663100 	 -10.300540 
-397.646500 	 -10.279360 
-398.628500 	 -10.261510 
-399.634200 	 -10.243890 
-400.651100 	 -10.225520 
-401.666700 	 -10.207880 
-402.690400 	 -10.190080 
-403.689500 	 -10.173100 
-404.661800 	 -10.157250 
-405.640100 	 -10.139360 
-406.614700 	 -10.121190 
-407.598200 	 -10.102070 
-408.626800 	 -10.082940 
-409.632800 	 -10.066010 
-410.614400 	 -10.048170 
-411.635100 	 -10.031260 
-412.640900 	 -10.014070 
-413.654900 	 -9.995249 
-414.681500 	 -9.976024 
-415.671400 	 -9.955777 
-416.658100 	 -9.936275 
-417.630800 	 -9.917895 
-418.610200 	 -9.900759 
-419.603000 	 -9.885153 
-420.582600 	 -9.869404 
-421.597700 	 -9.854965 
-422.623200 	 -9.840877 
-423.603500 	 -9.826046 
-424.611800 	 -9.812094 
-425.605300 	 -9.796575 
-426.610600 	 -9.780112 
-427.652100 	 -9.764296 
-428.670200 	 -9.747102 
-429.666500 	 -9.730431 
-430.675800 	 -9.715796 
-431.678300 	 -9.700207 
-432.673900 	 -9.685293 
-433.688400 	 -9.670103 
-434.682300 	 -9.652347 
-435.659200 	 -9.636393 
-436.641800 	 -9.620781 
-437.619700 	 -9.606610 
-438.593300 	 -9.593616 
-439.598300 	 -9.580091 
-440.618200 	 -9.566609 
-441.647900 	 -9.553207 
-442.666700 	 -9.539370 
-443.672900 	 -9.524966 
-444.663800 	 -9.510427 
-445.658100 	 -9.492750 
-446.656000 	 -9.476918 
-447.652300 	 -9.460640 
-448.638600 	 -9.444792 
-449.649600 	 -9.434323 
-450.666600 	 -9.419152 
-451.673000 	 -9.406863 
-452.679700 	 -9.392454 
-453.694900 	 -9.376469 
-454.675600 	 -9.363286 
-455.687000 	 -9.346697 
-456.688500 	 -9.334535 
-457.661600 	 -9.322547 
-458.666600 	 -9.310995 
-459.642900 	 -9.302959 
-460.633900 	 -9.286726 
-461.611200 	 -9.272413 
-462.620200 	 -9.259630 
-463.612300 	 -9.240666 
-464.636900 	 -9.231932 
-465.655200 	 -9.218912 
-466.648100 	 -9.204416 
-467.678300 	 -9.193860 
-468.689400 	 -9.179157 
-469.693600 	 -9.164362 
-470.682300 	 -9.150865 
-471.664000 	 -9.138111 
-472.641800 	 -9.125897 
-473.618000 	 -9.115026 
-474.620900 	 -9.103286 
-475.658000 	 -9.091162 
-476.647200 	 -9.079502 
-477.676500 	 -9.068688 
-478.697100 	 -9.058094 
-479.667700 	 -9.047155 
-480.681700 	 -9.035009 
-481.665600 	 -9.022358 
-482.643200 	 -9.009715 
-483.641700 	 -8.997183 
-484.647200 	 -8.985999 
-485.655400 	 -8.974244 
-486.664900 	 -8.962967 
-487.655500 	 -8.951172 
-488.627400 	 -8.939128 
-489.606900 	 -8.926193 
-490.587000 	 -8.913453 
-491.591500 	 -8.902651 
-492.591400 	 -8.890732 
-493.592300 	 -8.881285 
-494.610500 	 -8.871776 
-495.619000 	 -8.861551 
-496.641500 	 -8.852379 
-497.661300 	 -8.842209 
-498.647700 	 -8.832986 
-499.628500 	 -8.821754 
-500.604700 	 -8.810764 
-501.597900 	 -8.798800 
-502.595200 	 -8.786699 
-503.596700 	 -8.775743 
-504.615200 	 -8.764984 
-505.625500 	 -8.755427 
-506.625800 	 -8.744639 
-507.629100 	 -8.735168 
-508.636400 	 -8.723387 
-509.616900 	 -8.711651 
-510.605300 	 -8.702508 
-511.590400 	 -8.692717 
-512.543600 	 -8.685249 
-513.543500 	 -8.678345 
-514.559700 	 -8.669593 
-515.576300 	 -8.660748 
-516.621200 	 -8.652060 
-517.625800 	 -8.642211 
-518.633400 	 -8.632314 
-519.643800 	 -8.620796 
-520.633400 	 -8.609654 
-521.648200 	 -8.598885 
-522.638000 	 -8.587051 
-523.625400 	 -8.578015 
-524.623200 	 -8.568485 
-525.620100 	 -8.558355 
-526.647600 	 -8.549160 
-527.647600 	 -8.537678 
-528.650300 	 -8.525869 
-529.655800 	 -8.516339 
-530.641500 	 -8.508572 
-531.650300 	 -8.503294 
-532.651900 	 -8.497502 
-533.658100 	 -8.491463 
-534.666900 	 -8.483272 
-535.665800 	 -8.474760 
-536.665800 	 -8.467231 
-537.631700 	 -8.458226 
-538.594700 	 -8.449534 
-539.584200 	 -8.439930 
-540.581800 	 -8.430164 
-541.594700 	 -8.421687 
-542.635700 	 -8.413237 
-543.644200 	 -8.405365 
-544.644500 	 -8.396967 
-545.651600 	 -8.387821 
-546.633600 	 -8.376620 
-547.619100 	 -8.366086 
-548.642000 	 -8.356400 
-549.639200 	 -8.349078 
-550.622100 	 -8.345640 
-551.619900 	 -8.341679 
-552.612300 	 -8.337124 
-553.606900 	 -8.330983 
-554.603000 	 -8.324065 
-555.622900 	 -8.316403 
-556.625500 	 -8.309995 
-557.618400 	 -8.301442 
-558.639000 	 -8.292881 
-559.627100 	 -8.284412 
-560.578800 	 -8.274727 
-561.581400 	 -8.267500 
-562.559700 	 -8.259137 
-563.534300 	 -8.252138 
-564.550000 	 -8.244753 
-565.537400 	 -8.235752 
-566.549400 	 -8.227359 
-567.563700 	 -8.219024 
-568.584100 	 -8.212952 
-569.609700 	 -8.208335 
-570.616600 	 -8.204252 
-571.629600 	 -8.200108 
-572.622300 	 -8.194652 
-573.620000 	 -8.188061 
-574.615400 	 -8.181732 
-575.599300 	 -8.174482 
-576.595900 	 -8.166962 
-577.604300 	 -8.160614 
-578.630100 	 -8.153877 
-579.667700 	 -8.146504 
-580.674000 	 -8.139866 
-581.658200 	 -8.133108 
-582.627900 	 -8.126839 
-583.593900 	 -8.120752 
-584.586100 	 -8.114827 
-585.587300 	 -8.107308 
-586.589800 	 -8.099846 
-587.602400 	 -8.095192 
-588.592300 	 -8.089512 
-589.564900 	 -8.085815 
-590.565200 	 -8.081262 
-591.540300 	 -8.075964 
-592.538800 	 -8.071617 
-593.561300 	 -8.066601 
-594.557600 	 -8.063073 
-595.577100 	 -8.058197 
-596.587200 	 -8.053190 
-597.598800 	 -8.047761 
-598.618700 	 -8.041261 
-599.609400 	 -8.034274 
-600.600200 	 -8.028860 
-601.548300 	 -8.024454 
-602.504300 	 -8.020426 
-603.495400 	 -8.017046 
-604.516200 	 -8.013044 
-605.570600 	 -8.009670 
-606.599200 	 -8.005497 
-607.610500 	 -8.002394 
-608.593000 	 -7.997615 
-609.590600 	 -7.990808 
-610.580200 	 -7.986075 
-611.568800 	 -7.978787 
-612.558700 	 -7.973228 
-613.533400 	 -7.966838 
-614.543200 	 -7.960089 
-615.536100 	 -7.954939 
-616.540000 	 -7.950539 
-617.549800 	 -7.947736 
-618.540500 	 -7.941453 
-619.555400 	 -7.937049 
-620.556900 	 -7.931616 
-621.546100 	 -7.927992 
-622.555800 	 -7.928248 
-623.552700 	 -7.923333 
-624.560500 	 -7.920040 
-625.561600 	 -7.915462 
-626.558800 	 -7.910280 
-627.546800 	 -7.909523 
-628.538100 	 -7.905813 
-629.536700 	 -7.901655 
-630.531200 	 -7.895616 
-631.530900 	 -7.889747 
-632.542200 	 -7.884558 
-633.543000 	 -7.879893 
-634.542300 	 -7.875957 
-635.556800 	 -7.873020 
-636.565100 	 -7.869893 
-637.551000 	 -7.865446 
-638.535100 	 -7.860423 
-639.540100 	 -7.853990 
-640.501800 	 -7.848741 
-641.516700 	 -7.845795 
-642.504600 	 -7.844214 
-643.498700 	 -7.843312 
-644.508500 	 -7.841900 
-645.519400 	 -7.841174 
-646.540900 	 -7.839348 
-647.532600 	 -7.836427 
-648.556000 	 -7.833977 
-649.559800 	 -7.830469 
-650.569700 	 -7.824208 
-651.571600 	 -7.819303 
-652.547900 	 -7.813414 
-653.523900 	 -7.806531 
-654.520900 	 -7.803598 
-655.532400 	 -7.800619 
-656.541300 	 -7.797198 
-657.548500 	 -7.794123 
-658.551700 	 -7.789842 
-659.550000 	 -7.786596 
-660.533700 	 -7.785071 
-661.514900 	 -7.784924 
-662.517100 	 -7.786272 
-663.510200 	 -7.785355 
-664.512200 	 -7.784599 
-665.534200 	 -7.783055 
-666.515000 	 -7.780491 
-667.517800 	 -7.778752 
-668.533400 	 -7.776363 
-669.535200 	 -7.772742 
-670.545200 	 -7.769382 
-671.548000 	 -7.766118 
-672.545500 	 -7.760829 
-673.540600 	 -7.757834 
-674.526700 	 -7.755637 
-675.522300 	 -7.748695 
-676.510300 	 -7.742014 
-677.504900 	 -7.735970 
-678.523500 	 -7.731399 
-679.499900 	 -7.732139 
-680.521500 	 -7.737984 
-681.533400 	 -7.742152 
-682.513200 	 -7.744122 
-683.551100 	 -7.745728 
-684.545200 	 -7.743927 
-685.554300 	 -7.740775 
-686.580700 	 -7.735557 
-687.583000 	 -7.729843 
-688.588900 	 -7.726679 
-689.563300 	 -7.724652 
-690.547800 	 -7.725019 
-691.526000 	 -7.724856 
-692.489000 	 -7.721980 
-693.490000 	 -7.719965 
-694.493900 	 -7.720338 
-695.485400 	 -7.718210 
-696.521900 	 -7.715997 
-697.548700 	 -7.714419 
-698.537500 	 -7.710396 
-699.544600 	 -7.712261 
-700.546400 	 -7.714214 
-701.529000 	 -7.715916 
-702.529900 	 -7.716810 
-703.535200 	 -7.715235 
-704.513700 	 -7.712973 
-705.519200 	 -7.708603 
-706.528300 	 -7.706627 
-707.531000 	 -7.706095 
-708.537700 	 -7.708770 
-709.538200 	 -7.710322 
-710.529700 	 -7.710425 
-711.487600 	 -7.709625 
-712.484300 	 -7.705677 
-713.453700 	 -7.704012 
-714.434600 	 -7.699697 
-715.449600 	 -7.694720 
-716.437200 	 -7.692544 
-717.425900 	 -7.693211 
-718.453100 	 -7.700772 
-719.469400 	 -7.708928 
-720.483000 	 -7.717707 
-721.500400 	 -7.723784 
-722.484600 	 -7.726000 
-723.487200 	 -7.727308 
-724.478300 	 -7.726979 
-725.490400 	 -7.727811 
-726.508900 	 -7.727941 
-727.505700 	 -7.726056 
-728.520600 	 -7.723994 
-729.507100 	 -7.720489 
-730.494600 	 -7.718445 
-731.505600 	 -7.722887 
-732.484900 	 -7.723113 
-733.499000 	 -7.724221 
-734.501800 	 -7.723547 
-735.500200 	 -7.721155 
-736.518400 	 -7.726182 
-737.506000 	 -7.733144 
-738.502700 	 -7.742264 
-739.517400 	 -7.748205 
-740.506100 	 -7.748149 
-741.494900 	 -7.745206 
-742.494500 	 -7.743833 
-743.452500 	 -7.745835 
-744.465600 	 -7.753428 
-745.476000 	 -7.763535 
-746.463500 	 -7.771740 
-747.487900 	 -7.778381 
-748.492400 	 -7.781782 
-749.490100 	 -7.782307 
-750.491000 	 -7.784341 
-751.478300 	 -7.788114 
-752.468000 	 -7.794602 
-753.485000 	 -7.803831 
-754.482100 	 -7.812131 
-755.496100 	 -7.818687 
-756.494400 	 -7.824095 
-757.500100 	 -7.828785 
-758.530600 	 -7.832811 
-759.538100 	 -7.837552 
-760.530500 	 -7.837860 
-761.523200 	 -7.841723 
-762.505500 	 -7.848437 
-763.486200 	 -7.853174 
-764.495500 	 -7.865445 
-765.489500 	 -7.874828 
-766.473200 	 -7.882696 
-767.467900 	 -7.893353 
-768.451500 	 -7.898632 
-769.438400 	 -7.908117 
-770.426300 	 -7.912644 
-771.446400 	 -7.921943 
-772.466400 	 -7.929516 
-773.486300 	 -7.934831 
-774.519300 	 -7.944595 
-775.491300 	 -7.952186 
-776.496600 	 -7.964396 
-777.485300 	 -7.974094 
-778.482600 	 -7.983079 
-779.479700 	 -7.990058 
-780.448700 	 -7.997707 
-781.438700 	 -8.005449 
-782.433800 	 -8.016558 
-783.463000 	 -8.026091 
-784.479700 	 -8.034404 
-785.489600 	 -8.043293 
-786.484800 	 -8.050256 
-787.454900 	 -8.059430 
-788.434900 	 -8.068330 
-789.427900 	 -8.078811 
-790.437300 	 -8.088004 
-791.434700 	 -8.097046 
-792.452800 	 -8.108362 
-793.442300 	 -8.118347 
-794.405900 	 -8.129276 
-795.405300 	 -8.140209 
-796.398100 	 -8.150109 
-797.397000 	 -8.160274 
